SUBID	BLOCK	TRIAL	REP	RUNID	RT	RESP	ACC	RSIJIT	EV_START	EV_BLOCK	EV_TRIAL	EV_RETRIEVAL	EV_PROBE	EV_RESP	EV_BLEND
303	1	1	1	1	537.7201	32	1	1000	428726.7896	 0.0028	 0.0185	 1.0440	 2.0604	 3.0615	0
303	1	2	1	1	921.4633	32	1	1000	428726.7896	 0.0028	 3.0846	 4.1012	 5.1178	 6.1185	0
303	1	3	1	1	567.2345	35	1	1000	428726.7896	 0.0028	 6.1343	 7.1510	 8.1674	 9.1681	0
303	1	4	1	1	572.8706	32	1	1000	428726.7896	 0.0028	 9.1840	10.2096	11.2262	12.2267	0
303	1	5	1	1	777.1871	32	1	1000	428726.7896	 0.0028	12.2430	13.2671	14.2837	15.2885	0
303	1	6	1	1	481.0878	35	1	1000	428726.7896	 0.0028	15.3091	16.3256	17.3422	18.3424	0
303	1	7	1	1	639.3480	32	0	4000	428726.7896	 0.0028	18.3663	22.3825	23.3990	24.3995	0
303	1	8	1	1	686.0765	35	1	4000	428726.7896	 0.0028	25.4321	29.4483	30.4649	31.4651	0
303	1	9	1	1	636.5311	32	1	4000	428726.7896	 0.0028	31.4814	35.4975	36.5141	37.5143	0
303	1	10	1	1	771.1842	32	1	4000	428726.7896	 0.0028	37.5307	41.5469	42.5634	43.5636	0
303	1	11	1	1	754.5035	32	1	4000	428726.7896	 0.0028	43.5800	47.5961	48.6128	49.6130	0
303	1	12	1	1	544.3327	35	1	4000	428726.7896	 0.0028	49.6294	53.6455	54.6620	55.6622	0
303	1	13	1	1	672.0663	32	1	4000	428726.7896	 0.0028	55.6786	59.6947	60.7114	61.7115	0
303	1	14	1	1	710.2866	35	1	4000	428726.7896	 0.0028	61.7279	65.7441	66.7607	67.7609	0
303	1	15	1	1	620.5318	32	1	4000	428726.7896	 0.0028	67.7772	71.7934	72.8100	73.8101	0
303	1	16	1	1	667.2130	32	1	4000	428726.7896	 0.0028	73.8266	77.8427	78.8592	79.8595	0
303	1	17	1	1	698.5414	32	1	4000	428726.7896	 0.0028	79.8758	83.8920	84.9086	85.9088	0
303	1	18	1	1	697.3841	32	1	4000	428726.7896	 0.0028	85.9251	89.9413	90.9578	91.9580	0
303	1	19	1	1	840.1283	35	1	4000	428726.7896	 0.0028	91.9744	95.9906	97.0071	98.0073	0
303	1	20	1	1	574.8521	32	1	4000	428726.7896	 0.0028	98.0238	102.0399	103.0565	104.0567	0
303	1	21	1	1	540.7870	32	1	4000	428726.7896	 0.0028	104.0731	108.0892	109.1058	110.1060	0
303	1	22	1	1	612.3299	35	1	4000	428726.7896	 0.0028	110.1224	114.1385	115.1551	116.1553	0
303	1	23	1	1	802.9843	35	1	4000	428726.7896	 0.0028	116.1716	120.1879	121.2044	122.2046	0
303	1	24	1	1	473.3815	35	1	4000	428726.7896	 0.0028	122.2210	126.2372	127.2537	128.2538	0
303	1	25	1	1	735.8702	32	1	4000	428726.7896	 0.0028	128.2702	132.2865	133.3031	134.3033	0
303	1	26	1	1	503.0273	35	1	4000	428726.7896	 0.0028	134.3196	138.3358	139.3523	140.3525	0
303	1	27	1	1	565.2527	32	1	4000	428726.7896	 0.0028	140.3688	144.3850	145.4017	146.4019	0
303	1	28	1	1	492.1453	32	1	4000	428726.7896	 0.0028	146.4181	150.4344	151.4509	152.4511	0
303	1	29	1	1	475.1460	35	1	4000	428726.7896	 0.0028	152.4675	156.4836	157.5002	158.5004	0
303	1	30	1	1	473.6934	35	1	4000	428726.7896	 0.0028	158.5168	162.5329	163.5495	164.5497	0
303	2	1	1	1	565.9952	35	1	1000	428726.7896	164.5511	 0.0167	 1.0332	 2.0498	 3.0500	0
303	2	2	1	1	523.3423	32	1	1000	428726.7896	164.5511	 3.0664	 4.0830	 5.0994	 6.0999	0
303	2	3	1	1	498.1560	35	1	1000	428726.7896	164.5511	 6.1160	 7.1325	 8.1492	 9.1494	0
303	2	4	1	1	784.6808	32	1	1000	428726.7896	164.5511	 9.1656	10.1823	11.1988	12.1990	0
303	2	5	1	1	590.4410	35	0	1000	428726.7896	164.5511	12.2153	13.2319	14.2484	15.2486	0
303	2	6	1	1	1000.0097	1	0	1000	428726.7896	164.5511	16.2817	17.2980	18.3146	19.3156	0
303	2	7	1	1	995.3615	35	1	4000	428726.7896	164.5511	20.3477	24.3639	25.3804	26.3807	0
303	2	8	1	1	450.0841	35	1	4000	428726.7896	164.5511	26.3970	30.4132	31.4297	32.4299	0
303	2	9	1	1	504.3946	35	1	4000	428726.7896	164.5511	32.4463	36.4625	37.4791	38.4793	0
303	2	10	1	1	535.0341	35	1	4000	428726.7896	164.5511	38.4956	42.5117	43.5283	44.5285	0
303	2	11	1	1	501.6830	35	1	4000	428726.7896	164.5511	44.5449	48.5611	49.5777	50.5779	0
303	2	12	1	1	532.8229	32	1	4000	428726.7896	164.5511	50.5942	54.6104	55.6270	56.6272	0
303	2	13	1	1	939.5429	35	1	4000	428726.7896	164.5511	56.6435	60.6597	61.6763	62.6765	0
303	2	14	1	1	577.5747	32	1	4000	428726.7896	164.5511	62.6929	66.7089	67.7256	68.7258	0
303	2	15	1	1	504.2473	32	1	4000	428726.7896	164.5511	68.7422	72.7583	73.7749	74.7751	0
303	2	16	1	1	623.1761	32	1	4000	428726.7896	164.5511	74.7914	78.8075	79.8242	80.8244	0
303	2	17	1	1	999.9321	1	0	4000	428726.7896	164.5511	80.8407	84.8570	85.8735	86.8741	0
303	2	18	1	1	524.1826	32	1	4000	428726.7896	164.5511	87.9066	91.9228	92.9393	93.9395	0
303	2	19	1	1	882.3820	32	1	4000	428726.7896	164.5511	93.9559	97.9720	98.9886	99.9888	0
303	2	20	1	1	697.6442	35	1	4000	428726.7896	164.5511	100.0050	104.0213	105.0379	106.0381	0
303	2	21	1	1	568.4787	32	1	4000	428726.7896	164.5511	106.0544	110.0707	111.0872	112.0874	0
303	2	22	1	1	999.6968	1	0	4000	428726.7896	164.5511	112.1038	116.1199	117.1365	118.1370	0
303	2	23	1	1	780.4095	35	1	4000	428726.7896	164.5511	119.1695	123.1858	124.2024	125.2026	0
303	2	24	1	1	611.3451	32	1	4000	428726.7896	164.5511	125.2189	129.2351	130.2517	131.2519	0
303	2	25	1	1	466.8791	35	1	4000	428726.7896	164.5511	131.2681	135.2844	136.3010	137.3012	0
303	2	26	1	1	625.2222	35	1	4000	428726.7896	164.5511	137.3175	141.3338	142.3503	143.3505	0
303	2	27	1	1	903.8240	32	1	4000	428726.7896	164.5511	143.3668	147.3830	148.3996	149.3998	0
303	2	28	1	1	422.9959	35	1	4000	428726.7896	164.5511	149.4161	153.4323	154.4489	155.4491	0
303	2	29	1	1	677.1088	32	1	4000	428726.7896	164.5511	155.4654	159.4816	160.4982	161.4984	0
303	2	30	1	1	564.0788	35	1	4000	428726.7896	164.5511	161.5148	165.5310	166.5476	167.5478	0
303	3	1	1	1	621.5574	32	1	1000	428726.7896	167.5502	 0.0168	 1.0332	 2.0498	 3.0502	0
303	3	2	1	1	547.5173	35	1	1000	428726.7896	167.5502	 3.0663	 4.0829	 5.0995	 6.0997	0
303	3	3	1	1	690.0846	32	1	1000	428726.7896	167.5502	 6.1161	 7.1326	 8.1491	 9.1492	0
303	3	4	1	1	576.9405	35	1	1000	428726.7896	167.5502	 9.1657	10.1822	11.1988	12.1990	0
303	3	5	1	1	535.1731	35	1	1000	428726.7896	167.5502	12.2154	13.2319	14.2484	15.2486	0
303	3	6	1	1	501.5111	32	1	1000	428726.7896	167.5502	15.2650	16.2815	17.2980	18.2982	0
303	3	7	1	1	716.3503	32	1	4000	428726.7896	167.5502	18.3146	22.3308	23.3474	24.3475	0
303	3	8	1	1	458.9724	32	1	4000	428726.7896	167.5502	24.3638	28.3801	29.3967	30.3969	0
303	3	9	1	1	801.2969	35	1	4000	428726.7896	167.5502	30.4132	34.4294	35.4460	36.4461	0
303	3	10	1	1	672.2252	35	1	4000	428726.7896	167.5502	36.4625	40.4787	41.4952	42.4953	0
303	3	11	1	1	550.2262	35	1	4000	428726.7896	167.5502	42.5118	46.5279	47.5446	48.5448	0
303	3	12	1	1	597.5869	32	1	4000	428726.7896	167.5502	48.5612	52.5773	53.5939	54.5941	0
303	3	13	1	1	843.7255	32	0	4000	428726.7896	167.5502	54.6104	58.6266	59.6432	60.6434	0
303	3	14	1	1	658.4996	32	1	4000	428726.7896	167.5502	61.6763	65.6925	66.7091	67.7092	0
303	3	15	1	1	704.8973	32	1	4000	428726.7896	167.5502	67.7256	71.7417	72.7584	73.7586	0
303	3	16	1	1	655.7379	35	0	4000	428726.7896	167.5502	73.7748	77.7911	78.8077	79.8079	0
303	3	17	1	1	813.7477	32	1	4000	428726.7896	167.5502	80.8407	84.8570	85.8735	86.8737	0
303	3	18	1	1	572.0121	35	1	4000	428726.7896	167.5502	86.8901	90.9062	91.9229	92.9231	0
303	3	19	1	1	770.6227	35	1	4000	428726.7896	167.5502	92.9393	96.9555	97.9721	98.9723	0
303	3	20	1	1	625.8533	32	0	4000	428726.7896	167.5502	98.9887	103.0049	104.0214	105.0216	0
303	3	21	1	1	743.6304	32	1	4000	428726.7896	167.5502	106.0545	110.0706	111.0872	112.0874	0
303	3	22	1	1	526.2850	35	1	4000	428726.7896	167.5502	112.1038	116.1202	117.1366	118.1368	0
303	3	23	1	1	525.3649	35	1	4000	428726.7896	167.5502	118.1531	122.1693	123.1859	124.1861	0
303	3	24	1	1	604.5242	32	1	4000	428726.7896	167.5502	124.2024	128.2186	129.2352	130.2354	0
303	3	25	1	1	787.2135	32	1	4000	428726.7896	167.5502	130.2517	134.2680	135.2844	136.2846	0
303	3	26	1	1	537.0790	32	0	4000	428726.7896	167.5502	136.3010	140.3172	141.3338	142.3339	0
303	3	27	1	1	687.1412	32	1	4000	428726.7896	167.5502	143.3669	147.3831	148.3996	149.3998	0
303	3	28	1	1	598.5261	32	1	4000	428726.7896	167.5502	149.4162	153.4324	154.4489	155.4491	0
303	3	29	1	1	999.7978	1	0	4000	428726.7896	167.5502	155.4655	159.4817	160.4982	161.4986	0
303	3	30	1	1	547.2868	35	1	4000	428726.7896	167.5502	162.5313	166.5475	167.5640	168.5642	0
SUBID	BLOCK	TRIAL	REP	RUNID	RT	RESP	ACC	RSIJIT	EV_START	EV_BLOCK	EV_TRIAL	EV_RETRIEVAL	EV_PROBE	EV_RESP	EV_BLEND
303	4	1	1	2	515.3221	35	1	1000	429376.8594	 0.0036	 0.0091	 1.0258	 2.0424	 3.0470	0
303	4	2	1	2	450.4523	35	1	1000	429376.8594	 0.0036	 3.0744	 4.0918	 5.1083	 6.1091	0
303	4	3	1	2	704.5705	32	1	1000	429376.8594	 0.0036	 6.1249	 7.1414	 8.1580	 9.1585	0
303	4	4	1	2	503.4358	35	1	1000	429376.8594	 0.0036	 9.1745	10.1910	11.2076	12.2078	0
303	4	5	1	2	446.0860	35	1	1000	429376.8594	 0.0036	12.2242	13.2407	14.2573	15.2575	0
303	4	6	1	2	380.5339	35	1	1000	429376.8594	 0.0036	15.2738	16.2904	17.3069	18.3071	0
303	4	7	1	2	634.3378	32	1	4000	429376.8594	 0.0036	18.3235	22.3396	23.3563	24.3564	0
303	4	8	1	2	497.7756	35	1	4000	429376.8594	 0.0036	24.3728	28.3890	29.4055	30.4057	0
303	4	9	1	2	440.5021	35	0	4000	429376.8594	 0.0036	30.4221	34.4383	35.4549	36.4551	0
303	4	10	1	2	726.2446	35	1	4000	429376.8594	 0.0036	37.4879	41.5041	42.5207	43.5209	0
303	4	11	1	2	620.7432	35	1	4000	429376.8594	 0.0036	43.5372	47.5534	48.5699	49.5701	0
303	4	12	1	2	556.0996	32	1	4000	429376.8594	 0.0036	49.5865	53.6025	54.6192	55.6194	0
303	4	13	1	2	722.3087	32	1	4000	429376.8594	 0.0036	55.6356	59.6518	60.6684	61.6686	0
303	4	14	1	2	545.5913	35	1	4000	429376.8594	 0.0036	61.6850	65.7012	66.7176	67.7178	0
303	4	15	1	2	504.1068	35	1	4000	429376.8594	 0.0036	67.7343	71.7504	72.7671	73.7673	0
303	4	16	1	2	510.3947	35	1	4000	429376.8594	 0.0036	73.7836	77.7998	78.8164	79.8166	0
303	4	17	1	2	564.6245	32	1	4000	429376.8594	 0.0036	79.8329	83.8492	84.8658	85.8660	0
303	4	18	1	2	611.6709	35	1	4000	429376.8594	 0.0036	85.8823	89.8985	90.9152	91.9154	0
303	4	19	1	2	562.4947	35	1	4000	429376.8594	 0.0036	91.9318	95.9480	96.9646	97.9647	0
303	4	20	1	2	808.9432	32	1	4000	429376.8594	 0.0036	97.9811	101.9973	103.0138	104.0140	0
303	4	21	1	2	479.2833	35	1	4000	429376.8594	 0.0036	104.0304	108.0465	109.0631	110.0633	0
303	4	22	1	2	606.1671	35	1	4000	429376.8594	 0.0036	110.0795	114.0958	115.1125	116.1127	0
303	4	23	1	2	732.9990	35	1	4000	429376.8594	 0.0036	116.1290	120.1452	121.1617	122.1619	0
303	4	24	1	2	555.4770	35	1	4000	429376.8594	 0.0036	122.1783	126.1945	127.2111	128.2113	0
303	4	25	1	2	738.7673	32	1	4000	429376.8594	 0.0036	128.2277	132.2440	133.2605	134.2607	0
303	4	26	1	2	489.2064	35	1	4000	429376.8594	 0.0036	134.2771	138.2934	139.3099	140.3101	0
303	4	27	1	2	527.1040	35	1	4000	429376.8594	 0.0036	140.3266	144.3429	145.3593	146.3595	0
303	4	28	1	2	622.6607	32	1	4000	429376.8594	 0.0036	146.3759	150.3922	151.4087	152.4089	0
303	4	29	1	2	940.1568	32	0	4000	429376.8594	 0.0036	152.4253	156.4415	157.4581	158.4583	0
303	4	30	1	2	667.1433	32	1	4000	429376.8594	 0.0036	159.4912	163.5075	164.5240	165.5242	0
303	5	1	1	2	793.8675	32	1	1000	429376.8594	165.5271	 0.0122	 1.0286	 2.0452	 3.0454	0
303	5	2	1	2	632.2937	32	1	1000	429376.8594	165.5271	 3.0617	 4.0783	 5.0949	 6.0951	0
303	5	3	1	2	798.5419	35	0	1000	429376.8594	165.5271	 6.1114	 7.1280	 8.1444	 9.1446	0
303	5	4	1	2	843.6165	32	1	1000	429376.8594	165.5271	10.1775	11.1943	12.2108	13.2110	0
303	5	5	1	2	498.2151	32	1	1000	429376.8594	165.5271	13.2274	14.2440	15.2605	16.2607	0
303	5	6	1	2	913.1741	32	1	1000	429376.8594	165.5271	16.2771	17.2936	18.3101	19.3103	0
303	5	7	1	2	519.1836	32	1	4000	429376.8594	165.5271	19.3267	23.3429	24.3595	25.3597	0
303	5	8	1	2	502.5042	32	0	4000	429376.8594	165.5271	25.3761	29.3923	30.4089	31.4091	0
303	5	9	1	2	899.9994	35	1	4000	429376.8594	165.5271	32.4420	36.4584	37.4748	38.4750	0
303	5	10	1	2	1000.0687	1	0	4000	429376.8594	165.5271	38.4913	42.5077	43.5242	44.5255	0
303	5	11	1	2	544.4618	32	1	4000	429376.8594	165.5271	45.5573	49.5735	50.5902	51.5904	0
303	5	12	1	2	607.0932	35	1	4000	429376.8594	165.5271	51.6067	55.6229	56.6395	57.6397	0
303	5	13	1	2	637.5426	35	1	4000	429376.8594	165.5271	57.6559	61.6723	62.6889	63.6891	0
303	5	14	1	2	572.7243	35	1	4000	429376.8594	165.5271	63.7054	67.7217	68.7382	69.7384	0
303	5	15	1	2	739.4302	32	1	4000	429376.8594	165.5271	69.7548	73.7710	74.7876	75.7878	0
303	5	16	1	2	809.6139	32	1	4000	429376.8594	165.5271	75.8041	79.8204	80.8371	81.8373	0
303	5	17	1	2	472.1354	35	1	4000	429376.8594	165.5271	81.8535	85.8699	86.8863	87.8865	0
303	5	18	1	2	527.2477	35	1	4000	429376.8594	165.5271	87.9029	91.9191	92.9357	93.9359	0
303	5	19	1	2	573.8121	32	1	4000	429376.8594	165.5271	93.9522	97.9685	98.9851	99.9853	0
303	5	20	1	2	660.1053	35	1	4000	429376.8594	165.5271	100.0016	104.0179	105.0344	106.0346	0
303	5	21	1	2	547.5981	32	1	4000	429376.8594	165.5271	106.0510	110.0672	111.0838	112.0840	0
303	5	22	1	2	578.1204	35	1	4000	429376.8594	165.5271	112.1004	116.1166	117.1332	118.1334	0
303	5	23	1	2	472.1033	35	1	4000	429376.8594	165.5271	118.1496	122.1659	123.1826	124.1828	0
303	5	24	1	2	542.6491	32	1	4000	429376.8594	165.5271	124.1991	128.2153	129.2319	130.2321	0
303	5	25	1	2	533.3437	35	1	4000	429376.8594	165.5271	130.2483	134.2647	135.2813	136.2814	0
303	5	26	1	2	844.4593	32	0	4000	429376.8594	165.5271	136.2978	140.3141	141.3306	142.3308	0
303	5	27	1	2	522.6829	32	1	4000	429376.8594	165.5271	143.3637	147.3801	148.3965	149.3968	0
303	5	28	1	2	617.3869	35	1	4000	429376.8594	165.5271	149.4131	153.4294	154.4459	155.4461	0
303	5	29	1	2	511.4587	32	1	4000	429376.8594	165.5271	155.4625	159.4787	160.4953	161.4955	0
303	5	30	1	2	829.7591	32	0	4000	429376.8594	165.5271	161.5118	165.5281	166.5447	167.5449	0
303	6	1	1	2	999.5867	1	0	1000	429376.8594	168.5657	 0.0068	 1.0236	 2.0401	 3.0403	0
303	6	2	1	2	509.2543	32	1	1000	429376.8594	168.5657	 4.0733	 5.0898	 6.1063	 7.1065	0
303	6	3	1	2	557.7614	35	1	1000	429376.8594	168.5657	 7.1229	 8.1395	 9.1700	10.1702	0
303	6	4	1	2	737.6840	32	0	1000	429376.8594	168.5657	10.1893	11.2058	12.2224	13.2226	0
303	6	5	1	2	1000.1589	1	0	1000	429376.8594	168.5657	14.2555	15.2721	16.2886	17.2894	0
303	6	6	1	2	676.7610	35	1	1000	429376.8594	168.5657	18.3217	19.3383	20.3549	21.3551	0
303	6	7	1	2	907.3887	32	1	4000	429376.8594	168.5657	21.3714	25.3877	26.4043	27.4045	0
303	6	8	1	2	667.9347	32	1	4000	429376.8594	168.5657	27.4208	31.4370	32.4674	33.4676	0
303	6	9	1	2	560.2858	32	0	4000	429376.8594	168.5657	33.4868	37.5031	38.5196	39.5198	0
303	6	10	1	2	926.2566	35	1	4000	429376.8594	168.5657	40.5528	44.5690	45.5856	46.5858	0
303	6	11	1	2	501.0020	32	1	4000	429376.8594	168.5657	46.6021	50.6184	51.6349	52.6351	0
303	6	12	1	2	706.8145	32	1	4000	429376.8594	168.5657	52.6515	56.6678	57.6843	58.6845	0
303	6	13	1	2	497.3696	35	1	4000	429376.8594	168.5657	58.7008	62.7171	63.7337	64.7339	0
303	6	14	1	2	472.1874	32	0	4000	429376.8594	168.5657	64.7502	68.7665	69.7830	70.7832	0
303	6	15	1	2	486.0183	35	1	4000	429376.8594	168.5657	71.8161	75.8324	76.8490	77.8492	0
303	6	16	1	2	597.3350	32	1	4000	429376.8594	168.5657	77.8655	81.8817	82.8984	83.8986	0
303	6	17	1	2	540.1646	35	1	4000	429376.8594	168.5657	83.9149	87.9312	88.9477	89.9478	0
303	6	18	1	2	749.6182	32	1	4000	429376.8594	168.5657	89.9642	93.9804	95.0101	96.0103	0
303	6	19	1	2	664.1733	32	1	4000	429376.8594	168.5657	96.0303	100.0466	101.0631	102.0633	0
303	6	20	1	2	554.2816	32	1	4000	429376.8594	168.5657	102.0797	106.1089	107.1254	108.1256	0
303	6	21	1	2	472.1771	32	1	4000	429376.8594	168.5657	108.1419	112.1581	113.1747	114.1749	0
303	6	22	1	2	539.4205	35	1	4000	429376.8594	168.5657	114.1913	118.2280	119.2445	120.2448	0
303	6	23	1	2	569.9493	32	1	4000	429376.8594	168.5657	120.2611	124.2774	125.2939	126.2941	0
303	6	24	1	2	552.6541	32	1	4000	429376.8594	168.5657	126.3105	130.3266	131.3432	132.3434	0
303	6	25	1	2	742.4830	32	1	4000	429376.8594	168.5657	132.3598	136.3760	137.3926	138.3928	0
303	6	26	1	2	489.4389	32	1	4000	429376.8594	168.5657	138.4092	142.4254	143.4544	144.4546	0
303	6	27	1	2	536.1376	35	0	4000	429376.8594	168.5657	144.4712	148.4873	149.5039	150.5041	0
303	6	28	1	2	780.6568	32	1	4000	429376.8594	168.5657	151.5411	155.5574	156.5863	157.5865	0
303	6	29	1	2	611.8496	32	1	4000	429376.8594	168.5657	157.6029	161.6192	162.6357	163.6359	0
303	6	30	1	2	514.7331	32	1	4000	429376.8594	168.5657	163.6523	167.6685	168.6850	169.6852	0
SUBID	BLOCK	TRIAL	REP	RUNID	RT	RESP	ACC	RSIJIT	EV_START	EV_BLOCK	EV_TRIAL	EV_RETRIEVAL	EV_PROBE	EV_RESP	EV_BLEND
303	7	1	1	3	999.9241	1	0	1000	430010.2505	 0.0018	 0.0157	 1.0378	 2.0544	 3.0555	0
303	7	2	1	3	453.8463	32	1	1000	430010.2505	 0.0018	 4.0985	 5.1206	 6.1373	 7.1378	0
303	7	3	1	3	560.4683	35	1	1000	430010.2505	 0.0018	 7.1537	 8.1815	 9.1980	10.1984	0
303	7	4	1	3	951.5252	32	1	1000	430010.2505	 0.0018	10.2145	11.2310	12.2477	13.2482	0
303	7	5	1	3	413.9010	35	1	1000	430010.2505	 0.0018	13.2701	14.2866	15.3033	16.3081	0
303	7	6	1	3	534.8052	35	1	1000	430010.2505	 0.0018	16.3194	17.3360	18.3526	19.3529	0
303	7	7	1	3	460.5968	35	1	4000	430010.2505	 0.0018	19.3691	23.3854	24.4020	25.4022	0
303	7	8	1	3	603.2001	32	1	4000	430010.2505	 0.0018	25.4186	29.4348	30.4513	31.4515	0
303	7	9	1	3	567.6765	35	1	4000	430010.2505	 0.0018	31.4787	35.4949	36.5114	37.5116	0
303	7	10	1	3	606.2042	35	1	4000	430010.2505	 0.0018	37.5280	41.5441	42.5607	43.5609	0
303	7	11	1	3	484.5134	35	0	4000	430010.2505	 0.0018	43.5773	47.5935	48.6101	49.6103	0
303	7	12	1	3	570.4913	32	1	4000	430010.2505	 0.0018	50.6431	54.6594	55.6760	56.6761	0
303	7	13	1	3	497.8965	35	1	4000	430010.2505	 0.0018	56.6924	60.7087	61.7252	62.7254	0
303	7	14	1	3	760.1103	32	1	4000	430010.2505	 0.0018	62.7417	66.7579	67.7745	68.7747	0
303	7	15	1	3	438.8375	35	1	4000	430010.2505	 0.0018	68.7910	72.8072	73.8238	74.8240	0
303	7	16	1	3	638.4110	32	1	4000	430010.2505	 0.0018	74.8404	78.8565	79.8732	80.8733	0
303	7	17	1	3	468.0660	35	0	4000	430010.2505	 0.0018	80.8896	84.9058	85.9224	86.9226	0
303	7	18	1	3	594.8463	35	1	4000	430010.2505	 0.0018	87.9555	91.9718	92.9883	93.9884	0
303	7	19	1	3	553.7549	32	1	4000	430010.2505	 0.0018	94.0049	98.0210	99.0376	100.0378	0
303	7	20	1	3	520.6053	35	1	4000	430010.2505	 0.0018	100.0541	104.0703	105.0869	106.0871	0
303	7	21	1	3	494.8689	35	1	4000	430010.2505	 0.0018	106.1034	110.1196	111.1362	112.1364	0
303	7	22	1	3	573.3192	32	1	4000	430010.2505	 0.0018	112.1528	116.1689	117.1854	118.1856	0
303	7	23	1	3	716.3691	32	1	4000	430010.2505	 0.0018	118.2020	122.2182	123.2348	124.2349	0
303	7	24	1	3	442.5554	35	1	4000	430010.2505	 0.0018	124.2514	128.2676	129.2841	130.2843	0
303	7	25	1	3	713.6737	32	1	4000	430010.2505	 0.0018	130.3006	134.3169	135.3334	136.3336	0
303	7	26	1	3	496.4147	32	1	4000	430010.2505	 0.0018	136.3499	140.3662	141.3828	142.3829	0
303	7	27	1	3	655.4913	32	1	4000	430010.2505	 0.0018	142.3992	146.4154	147.4320	148.4322	0
303	7	28	1	3	845.1884	32	1	4000	430010.2505	 0.0018	148.4486	152.4648	153.4812	154.4814	0
303	7	29	1	3	572.5709	32	1	4000	430010.2505	 0.0018	154.4978	158.5141	159.5306	160.5308	0
303	7	30	1	3	507.0023	35	1	4000	430010.2505	 0.0018	160.5471	164.5633	165.5799	166.5800	0
303	8	1	1	3	784.6783	32	1	1000	430010.2505	166.5814	 0.0129	 1.0296	 2.0462	 3.0464	0
303	8	2	1	3	423.5049	35	1	1000	430010.2505	166.5814	 3.0628	 4.0792	 5.0958	 6.0960	0
303	8	3	1	3	773.5346	35	1	1000	430010.2505	166.5814	 6.1123	 7.1289	 8.1455	 9.1456	0
303	8	4	1	3	476.0495	35	1	1000	430010.2505	166.5814	 9.1620	10.1785	11.1950	12.1952	0
303	8	5	1	3	505.8100	32	1	1000	430010.2505	166.5814	12.2117	13.2281	14.2448	15.2449	0
303	8	6	1	3	551.9457	35	1	1000	430010.2505	166.5814	15.2613	16.2779	17.2945	18.2946	0
303	8	7	1	3	646.6331	32	1	4000	430010.2505	166.5814	18.3108	22.3271	23.3437	24.3439	0
303	8	8	1	3	510.3855	35	1	4000	430010.2505	166.5814	24.3602	28.3764	29.3929	30.3931	0
303	8	9	1	3	740.6825	32	1	4000	430010.2505	166.5814	30.4096	34.4257	35.4423	36.4424	0
303	8	10	1	3	587.5110	32	1	4000	430010.2505	166.5814	36.4588	40.4749	41.4915	42.4917	0
303	8	11	1	3	506.2935	35	1	4000	430010.2505	166.5814	42.5082	46.5243	47.5409	48.5411	0
303	8	12	1	3	512.8744	32	1	4000	430010.2505	166.5814	48.5574	52.5736	53.5902	54.5904	0
303	8	13	1	3	567.6644	32	1	4000	430010.2505	166.5814	54.6068	58.6229	59.6395	60.6397	0
303	8	14	1	3	558.3403	32	1	4000	430010.2505	166.5814	60.6560	64.6722	65.6888	66.6890	0
303	8	15	1	3	845.2446	32	0	4000	430010.2505	166.5814	66.7053	70.7216	71.7380	72.7382	0
303	8	16	1	3	482.6679	35	1	4000	430010.2505	166.5814	73.7712	77.7874	78.8040	79.8042	0
303	8	17	1	3	513.9392	35	1	4000	430010.2505	166.5814	79.8205	83.8366	84.8533	85.8534	0
303	8	18	1	3	879.8593	32	1	4000	430010.2505	166.5814	85.8697	89.8860	90.9026	91.9028	0
303	8	19	1	3	630.7579	32	1	4000	430010.2505	166.5814	91.9191	95.9353	96.9519	97.9521	0
303	8	20	1	3	453.1144	35	1	4000	430010.2505	166.5814	97.9684	101.9847	103.0012	104.0013	0
303	8	21	1	3	524.7428	32	1	4000	430010.2505	166.5814	104.0177	108.0339	109.0504	110.0506	0
303	8	22	1	3	778.5337	35	1	4000	430010.2505	166.5814	110.0670	114.0832	115.0997	116.0999	0
303	8	23	1	3	577.9231	32	1	4000	430010.2505	166.5814	116.1163	120.1326	121.1490	122.1492	0
303	8	24	1	3	784.9854	32	1	4000	430010.2505	166.5814	122.1656	126.1818	127.1983	128.1985	0
303	8	25	1	3	519.7192	32	1	4000	430010.2505	166.5814	128.2150	132.2311	133.2476	134.2478	0
303	8	26	1	3	557.7075	32	1	4000	430010.2505	166.5814	134.2642	138.2804	139.2970	140.2972	0
303	8	27	1	3	540.3714	35	1	4000	430010.2505	166.5814	140.3135	144.3297	145.3463	146.3465	0
303	8	28	1	3	491.3070	32	1	4000	430010.2505	166.5814	146.3628	150.3791	151.3956	152.3957	0
303	8	29	1	3	513.8613	32	1	4000	430010.2505	166.5814	152.4121	156.4284	157.4448	158.4450	0
303	8	30	1	3	552.8430	32	1	4000	430010.2505	166.5814	158.4614	162.4776	163.4942	164.4943	0
303	9	1	1	3	519.3825	32	1	1000	430010.2505	164.4959	 0.0139	 1.0305	 2.0472	 3.0474	0
303	9	2	1	3	653.9994	32	0	1000	430010.2505	164.4959	 3.0636	 4.0802	 5.0967	 6.0969	0
303	9	3	1	3	699.8537	32	1	1000	430010.2505	164.4959	 7.1299	 8.1464	 9.1629	10.1631	0
303	9	4	1	3	546.4147	35	1	1000	430010.2505	164.4959	10.1796	11.1961	12.2127	13.2129	0
303	9	5	1	3	417.2799	35	1	1000	430010.2505	164.4959	13.2291	14.2458	15.2623	16.2625	0
303	9	6	1	3	696.0044	35	1	1000	430010.2505	164.4959	16.2789	17.2955	18.3192	19.3194	0
303	9	7	1	3	486.6394	35	1	4000	430010.2505	164.4959	19.3357	23.3519	24.3685	25.3687	0
303	9	8	1	3	501.7113	35	1	4000	430010.2505	164.4959	25.3850	29.4012	30.4178	31.4180	0
303	9	9	1	3	467.7688	32	1	4000	430010.2505	164.4959	31.4344	35.4505	36.4671	37.4673	0
303	9	10	1	3	467.1842	32	1	4000	430010.2505	164.4959	37.4836	41.4999	42.5163	43.5165	0
303	9	11	1	3	513.7347	32	1	4000	430010.2505	164.4959	43.5329	47.5492	48.5657	49.5658	0
303	9	12	1	3	607.5337	32	1	4000	430010.2505	164.4959	49.5823	53.5984	54.6149	55.6151	0
303	9	13	1	3	462.8111	35	1	4000	430010.2505	164.4959	55.6315	59.6477	60.6643	61.6645	0
303	9	14	1	3	604.9295	35	1	4000	430010.2505	164.4959	61.6808	65.6970	66.7136	67.7138	0
303	9	15	1	3	651.7399	35	1	4000	430010.2505	164.4959	67.7301	71.7463	72.7629	73.7631	0
303	9	16	1	3	755.3198	32	1	4000	430010.2505	164.4959	73.7794	77.7957	78.8122	79.8124	0
303	9	17	1	3	497.9855	32	1	4000	430010.2505	164.4959	79.8288	83.8449	84.8615	85.8616	0
303	9	18	1	3	824.3722	32	0	4000	430010.2505	164.4959	85.8780	89.8942	90.9109	91.9111	0
303	9	19	1	3	534.3457	32	1	4000	430010.2505	164.4959	92.9439	96.9601	97.9766	98.9768	0
303	9	20	1	3	556.5839	32	1	4000	430010.2505	164.4959	98.9932	103.0094	104.0260	105.0261	0
303	9	21	1	3	635.6884	32	1	4000	430010.2505	164.4959	105.0426	109.0588	110.0753	111.0755	0
303	9	22	1	3	498.8987	35	1	4000	430010.2505	164.4959	111.0918	115.1080	116.1246	117.1248	0
303	9	23	1	3	689.4042	32	0	4000	430010.2505	164.4959	117.1411	121.1573	122.1739	123.1741	0
303	9	24	1	3	471.7951	35	1	4000	430010.2505	164.4959	124.2070	128.2232	129.2397	130.2399	0
303	9	25	1	3	685.5024	32	1	4000	430010.2505	164.4959	130.2563	134.2724	135.2891	136.2893	0
303	9	26	1	3	999.8129	1	0	4000	430010.2505	164.4959	136.3056	140.3218	141.3384	142.3392	0
303	9	27	1	3	435.0741	35	1	4000	430010.2505	164.4959	143.3715	147.3876	148.4042	149.4044	0
303	9	28	1	3	497.8662	32	1	4000	430010.2505	164.4959	149.4207	153.4370	154.4535	155.4537	0
303	9	29	1	3	559.7174	32	1	4000	430010.2505	164.4959	155.4700	159.4862	160.5028	161.5030	0
303	9	30	1	3	487.2651	35	1	4000	430010.2505	164.4959	161.5193	165.5356	166.5521	167.5523	0
SUBID	BLOCK	TRIAL	REP	RUNID	RT	RESP	ACC	RSIJIT	EV_START	EV_BLOCK	EV_TRIAL	EV_RETRIEVAL	EV_PROBE	EV_RESP	EV_BLEND
303	10	1	1	4	1000.1944	1	0	1000	430686.9318	 0.0024	 0.0101	 1.0267	 2.0433	 3.0486	0
303	10	2	1	4	999.6713	1	0	1000	430686.9318	 0.0024	 4.0888	 5.1092	 6.1258	 7.1264	0
303	10	3	1	4	1000.0763	1	0	1000	430686.9318	 0.0024	 8.1590	 9.1754	10.1920	11.1931	0
303	10	4	1	4	1000.1787	1	0	1000	430686.9318	 0.0024	12.2251	13.2416	14.2582	15.2591	0
303	10	5	1	4	994.9150	32	1	1000	430686.9318	 0.0024	16.2913	17.3078	18.3244	19.3251	0
303	10	6	1	4	745.4974	32	1	1000	430686.9318	 0.0024	19.3410	20.3575	21.3741	22.3743	0
303	10	7	1	4	711.1183	35	1	4000	430686.9318	 0.0024	22.3907	26.4069	27.4233	28.4235	0
303	10	8	1	4	750.6619	32	1	4000	430686.9318	 0.0024	28.4399	32.4561	33.4726	34.4728	0
303	10	9	1	4	620.7845	32	1	4000	430686.9318	 0.0024	34.4892	38.5054	39.5219	40.5221	0
303	10	10	1	4	819.2179	32	1	4000	430686.9318	 0.0024	40.5386	44.5546	45.5713	46.5715	0
303	10	11	1	4	546.2137	32	0	4000	430686.9318	 0.0024	46.5877	50.6040	51.6206	52.6208	0
303	10	12	1	4	608.6966	35	1	4000	430686.9318	 0.0024	53.6536	57.6699	58.6864	59.6867	0
303	10	13	1	4	935.2218	32	0	4000	430686.9318	 0.0024	59.7031	63.7191	64.7357	65.7359	0
303	10	14	1	4	549.7959	35	1	4000	430686.9318	 0.0024	66.7689	70.7850	71.8016	72.8018	0
303	10	15	1	4	644.4962	32	1	4000	430686.9318	 0.0024	72.8181	76.8343	77.8508	78.8510	0
303	10	16	1	4	595.1151	32	1	4000	430686.9318	 0.0024	78.8675	82.8836	83.9001	84.9003	0
303	10	17	1	4	601.2941	35	1	4000	430686.9318	 0.0024	84.9167	88.9329	89.9495	90.9497	0
303	10	18	1	4	551.7409	32	1	4000	430686.9318	 0.0024	90.9660	94.9822	95.9988	96.9990	0
303	10	19	1	4	551.1130	35	1	4000	430686.9318	 0.0024	97.0152	101.0315	102.0481	103.0483	0
303	10	20	1	4	605.1660	32	1	4000	430686.9318	 0.0024	103.0646	107.0808	108.0973	109.0974	0
303	10	21	1	4	452.5033	32	1	4000	430686.9318	 0.0024	109.1140	113.1302	114.1467	115.1469	0
303	10	22	1	4	483.3976	35	1	4000	430686.9318	 0.0024	115.1632	119.1794	120.1960	121.1962	0
303	10	23	1	4	641.5969	32	1	4000	430686.9318	 0.0024	121.2126	125.2287	126.2453	127.2455	0
303	10	24	1	4	552.7143	32	1	4000	430686.9318	 0.0024	127.2617	131.2780	132.2946	133.2948	0
303	10	25	1	4	583.4227	32	1	4000	430686.9318	 0.0024	133.3111	137.3273	138.3439	139.3441	0
303	10	26	1	4	470.0151	32	1	4000	430686.9318	 0.0024	139.3604	143.3766	144.3931	145.3933	0
303	10	27	1	4	548.9838	32	1	4000	430686.9318	 0.0024	145.4097	149.4260	150.4425	151.4427	0
303	10	28	1	4	474.9020	32	1	4000	430686.9318	 0.0024	151.4590	155.4752	156.4918	157.4921	0
303	10	29	1	4	473.5464	35	1	4000	430686.9318	 0.0024	157.5083	161.5245	162.5411	163.5413	0
303	10	30	1	4	592.7968	32	1	4000	430686.9318	 0.0024	163.5576	167.5739	168.5904	169.5906	0
303	11	1	1	4	673.2982	32	1	1000	430686.9318	169.5931	 0.0056	 1.0220	 2.0386	 3.0388	0
303	11	2	1	4	447.0789	32	1	1000	430686.9318	169.5931	 3.0550	 4.0716	 5.0882	 6.0884	0
303	11	3	1	4	870.0175	32	1	1000	430686.9318	169.5931	 6.1048	 7.1213	 8.1379	 9.1381	0
303	11	4	1	4	756.3356	35	0	1000	430686.9318	169.5931	 9.1544	10.1710	11.1875	12.1877	0
303	11	5	1	4	999.8977	1	0	1000	430686.9318	169.5931	13.2206	14.2372	15.2537	16.2542	0
303	11	6	1	4	463.2940	35	1	1000	430686.9318	169.5931	17.2868	18.3033	19.3199	20.3201	0
303	11	7	1	4	566.0334	32	1	4000	430686.9318	169.5931	20.3364	24.3527	25.3692	26.3694	0
303	11	8	1	4	549.4800	32	1	4000	430686.9318	169.5931	26.3858	30.4020	31.4185	32.4187	0
303	11	9	1	4	556.0953	32	1	4000	430686.9318	169.5931	32.4351	36.4511	37.4677	38.4678	0
303	11	10	1	4	507.0701	35	1	4000	430686.9318	169.5931	38.4844	42.5006	43.5171	44.5173	0
303	11	11	1	4	480.7028	32	1	4000	430686.9318	169.5931	44.5337	48.5498	49.5664	50.5666	0
303	11	12	1	4	616.3376	35	1	4000	430686.9318	169.5931	50.5829	54.5992	55.6157	56.6159	0
303	11	13	1	4	470.8089	35	1	4000	430686.9318	169.5931	56.6322	60.6485	61.6650	62.6652	0
303	11	14	1	4	588.8240	32	1	4000	430686.9318	169.5931	62.6816	66.6978	67.7143	68.7144	0
303	11	15	1	4	755.7232	32	1	4000	430686.9318	169.5931	68.7309	72.7471	73.7638	74.7640	0
303	11	16	1	4	442.1939	35	1	4000	430686.9318	169.5931	74.7802	78.7964	79.8129	80.8131	0
303	11	17	1	4	561.5125	32	1	4000	430686.9318	169.5931	80.8295	84.8457	85.8622	86.8624	0
303	11	18	1	4	536.2791	32	1	4000	430686.9318	169.5931	86.8788	90.8950	91.9116	92.9118	0
303	11	19	1	4	470.6309	35	1	4000	430686.9318	169.5931	92.9281	96.9443	97.9608	98.9610	0
303	11	20	1	4	661.8853	35	1	4000	430686.9318	169.5931	98.9774	102.9936	104.0101	105.0103	0
303	11	21	1	4	676.4409	35	1	4000	430686.9318	169.5931	105.0267	109.0428	110.0594	111.0596	0
303	11	22	1	4	499.1594	32	0	4000	430686.9318	169.5931	111.0760	115.0922	116.1087	117.1089	0
303	11	23	1	4	449.0048	35	1	4000	430686.9318	169.5931	118.1418	122.1580	123.1746	124.1748	0
303	11	24	1	4	807.5952	32	1	4000	430686.9318	169.5931	124.1912	128.2074	129.2239	130.2241	0
303	11	25	1	4	478.4809	35	1	4000	430686.9318	169.5931	130.2405	134.2566	135.2732	136.2734	0
303	11	26	1	4	565.0766	32	1	4000	430686.9318	169.5931	136.2897	140.3059	141.3225	142.3227	0
303	11	27	1	4	635.7215	35	1	4000	430686.9318	169.5931	142.3390	146.3552	147.3718	148.3720	0
303	11	28	1	4	658.9496	32	1	4000	430686.9318	169.5931	148.3883	152.4045	153.4210	154.4212	0
303	11	29	1	4	609.3504	32	1	4000	430686.9318	169.5931	154.4376	158.4537	159.4703	160.4704	0
303	11	30	1	4	519.7825	32	1	4000	430686.9318	169.5931	160.4869	164.5031	165.5195	166.5197	0
303	12	1	1	4	704.6267	35	0	1000	430686.9318	166.5217	 0.0134	 1.0299	 2.0466	 3.0468	0
303	12	2	1	4	589.5821	35	0	1000	430686.9318	166.5217	 4.0796	 5.0963	 6.1128	 7.1130	0
303	12	3	1	4	699.7798	32	1	1000	430686.9318	166.5217	 8.1459	 9.1625	10.1791	11.1793	0
303	12	4	1	4	937.8854	32	1	1000	430686.9318	166.5217	11.1957	12.2121	13.2287	14.2289	0
303	12	5	1	4	472.1800	32	1	1000	430686.9318	166.5217	14.2453	15.2618	16.2785	17.2787	0
303	12	6	1	4	911.0062	32	1	1000	430686.9318	166.5217	17.2950	18.3115	19.3279	20.3281	0
303	12	7	1	4	589.1517	32	1	4000	430686.9318	166.5217	20.3446	24.3608	25.3773	26.3775	0
303	12	8	1	4	764.1348	32	0	4000	430686.9318	166.5217	26.3939	30.4100	31.4267	32.4269	0
303	12	9	1	4	537.7775	35	1	4000	430686.9318	166.5217	33.4599	37.4759	38.4925	39.4927	0
303	12	10	1	4	697.5435	32	1	4000	430686.9318	166.5217	39.5090	43.5253	44.5419	45.5421	0
303	12	11	1	4	663.7916	35	1	4000	430686.9318	166.5217	45.5584	49.5746	50.5914	51.5916	0
303	12	12	1	4	654.5547	35	1	4000	430686.9318	166.5217	51.6079	55.6241	56.6406	57.6408	0
303	12	13	1	4	508.9421	35	0	4000	430686.9318	166.5217	57.6572	61.6735	62.6901	63.6903	0
303	12	14	1	4	475.0998	35	1	4000	430686.9318	166.5217	64.7232	68.7395	69.7560	70.7562	0
303	12	15	1	4	617.9096	32	1	4000	430686.9318	166.5217	70.7726	74.7888	75.8054	76.8056	0
303	12	16	1	4	999.7339	1	0	4000	430686.9318	166.5217	76.8220	80.8381	81.8548	82.8552	0
303	12	17	1	4	661.8286	35	1	4000	430686.9318	166.5217	83.8879	87.9042	88.9207	89.9209	0
303	12	18	1	4	677.2168	32	1	4000	430686.9318	166.5217	89.9373	93.9536	94.9700	95.9702	0
303	12	19	1	4	515.0584	35	1	4000	430686.9318	166.5217	95.9866	100.0029	101.0194	102.0196	0
303	12	20	1	4	737.6976	32	1	4000	430686.9318	166.5217	102.0360	106.0523	107.0688	108.0690	0
303	12	21	1	4	785.1483	32	1	4000	430686.9318	166.5217	108.0856	112.1016	113.1182	114.1183	0
303	12	22	1	4	566.9116	35	0	4000	430686.9318	166.5217	114.1347	118.1509	119.1675	120.1677	0
303	12	23	1	4	821.2516	32	1	4000	430686.9318	166.5217	121.2007	125.2170	126.2335	127.2337	0
303	12	24	1	4	723.7110	32	1	4000	430686.9318	166.5217	127.2500	131.2663	132.2828	133.2830	0
303	12	25	1	4	882.9056	32	1	4000	430686.9318	166.5217	133.2994	137.3157	138.3322	139.3324	0
303	12	26	1	4	521.3797	35	1	4000	430686.9318	166.5217	139.3487	143.3650	144.3816	145.3818	0
303	12	27	1	4	888.1383	35	1	4000	430686.9318	166.5217	145.3980	149.4144	150.4310	151.4312	0
303	12	28	1	4	999.8392	1	0	4000	430686.9318	166.5217	151.4475	155.4638	156.4803	157.4808	0
303	12	29	1	4	564.0633	32	1	4000	430686.9318	166.5217	158.5134	162.5297	163.5463	164.5464	0
303	12	30	1	4	515.4530	32	1	4000	430686.9318	166.5217	164.5628	168.5790	169.5956	170.5958	0
SUBID	BLOCK	TRIAL	REP	RUNID	RT	RESP	ACC	RSIJIT	EV_START	EV_BLOCK	EV_TRIAL	EV_RETRIEVAL	EV_PROBE	EV_RESP	EV_BLEND
303	13	1	1	5	503.5271	32	1	1000	431432.6124	 0.0038	 0.0094	 1.0258	 2.0425	 3.0471	0
303	13	2	1	5	935.0526	32	0	1000	431432.6124	 0.0038	 3.0717	 4.0919	 5.1085	 6.1090	0
303	13	3	1	5	597.7444	32	1	1000	431432.6124	 0.0038	 7.1417	 8.1582	 9.1748	10.1753	0
303	13	4	1	5	723.2432	32	1	1000	431432.6124	 0.0038	10.1913	11.2079	12.2244	13.2246	0
303	13	5	1	5	457.5798	32	1	1000	431432.6124	 0.0038	13.2409	14.2576	15.2741	16.2743	0
303	13	6	1	5	535.9728	35	1	1000	431432.6124	 0.0038	16.2907	17.3072	18.3239	19.3241	0
303	13	7	1	5	527.0717	32	1	4000	431432.6124	 0.0038	19.3403	23.3566	24.3732	25.3733	0
303	13	8	1	5	517.1207	35	1	4000	431432.6124	 0.0038	25.3897	29.4060	30.4225	31.4227	0
303	13	9	1	5	459.7700	35	1	4000	431432.6124	 0.0038	31.4391	35.4553	36.4719	37.4721	0
303	13	10	1	5	514.7043	32	1	4000	431432.6124	 0.0038	37.4884	41.5048	42.5213	43.5215	0
303	13	11	1	5	505.3910	32	1	4000	431432.6124	 0.0038	43.5378	47.5541	48.5706	49.5708	0
303	13	12	1	5	496.2320	35	1	4000	431432.6124	 0.0038	49.5872	53.6034	54.6201	55.6203	0
303	13	13	1	5	599.2318	32	1	4000	431432.6124	 0.0038	55.6366	59.6528	60.6693	61.6695	0
303	13	14	1	5	545.0147	32	1	4000	431432.6124	 0.0038	61.6983	65.7145	66.7310	67.7312	0
303	13	15	1	5	584.2273	35	1	4000	431432.6124	 0.0038	67.7476	71.7639	72.7803	73.7805	0
303	13	16	1	5	486.7069	32	1	4000	431432.6124	 0.0038	73.7969	77.8131	78.8296	79.8298	0
303	13	17	1	5	489.0253	32	1	4000	431432.6124	 0.0038	79.8507	83.8669	84.8835	85.8837	0
303	13	18	1	5	487.5071	35	1	4000	431432.6124	 0.0038	85.9001	89.9163	90.9328	91.9330	0
303	13	19	1	5	613.7389	32	0	4000	431432.6124	 0.0038	91.9495	95.9655	96.9822	97.9824	0
303	13	20	1	5	452.2395	32	1	4000	431432.6124	 0.0038	99.0153	103.0316	104.0482	105.0484	0
303	13	21	1	5	579.0112	32	1	4000	431432.6124	 0.0038	105.0647	109.0810	110.0975	111.0977	0
303	13	22	1	5	513.5409	35	1	4000	431432.6124	 0.0038	111.1141	115.1303	116.1469	117.1471	0
303	13	23	1	5	600.2901	32	1	4000	431432.6124	 0.0038	117.1634	121.1797	122.1962	123.1964	0
303	13	24	1	5	645.9419	32	1	4000	431432.6124	 0.0038	123.2128	127.2290	128.2456	129.2458	0
303	13	25	1	5	469.5298	32	1	4000	431432.6124	 0.0038	129.2622	133.2784	134.2950	135.2952	0
303	13	26	1	5	804.4687	35	1	4000	431432.6124	 0.0038	135.3115	139.3278	140.3443	141.3445	0
303	13	27	1	5	642.0332	35	1	4000	431432.6124	 0.0038	141.3608	145.3771	146.3937	147.3939	0
303	13	28	1	5	608.7098	35	1	4000	431432.6124	 0.0038	147.4104	151.4265	152.4431	153.4433	0
303	13	29	1	5	1000.0908	1	0	4000	431432.6124	 0.0038	153.4596	157.4758	158.4924	159.4935	0
303	13	30	1	5	469.6706	35	1	4000	431432.6124	 0.0038	160.5256	164.5417	165.5584	166.5586	0
303	14	1	1	5	597.8580	32	1	1000	431432.6124	166.5613	 0.0161	 1.0327	 2.0492	 3.0494	0
303	14	2	1	5	596.2246	35	1	1000	431432.6124	166.5613	 3.0658	 4.0825	 5.0990	 6.0992	0
303	14	3	1	5	698.1800	32	1	1000	431432.6124	166.5613	 6.1155	 7.1320	 8.1486	 9.1488	0
303	14	4	1	5	648.9558	32	0	1000	431432.6124	166.5613	 9.1650	10.1817	11.1982	12.1984	0
303	14	5	1	5	999.7555	1	0	1000	431432.6124	166.5613	13.2369	14.2535	15.2701	16.2705	0
303	14	6	1	5	643.8253	35	1	1000	431432.6124	166.5613	17.3031	18.3307	19.3473	20.3475	0
303	14	7	1	5	514.3744	35	1	4000	431432.6124	166.5613	20.3638	24.3800	25.3966	26.3968	0
303	14	8	1	5	632.8411	32	0	4000	431432.6124	166.5613	26.4131	30.4294	31.4459	32.4461	0
303	14	9	1	5	431.3559	35	1	4000	431432.6124	166.5613	33.4790	37.4951	38.5117	39.5119	0
303	14	10	1	5	446.0772	32	1	4000	431432.6124	166.5613	39.5283	43.5444	44.5610	45.5612	0
303	14	11	1	5	588.3137	32	0	4000	431432.6124	166.5613	45.5776	49.5938	50.6103	51.6105	0
303	14	12	1	5	620.6409	32	1	4000	431432.6124	166.5613	52.6495	56.6657	57.6823	58.6825	0
303	14	13	1	5	667.6251	32	1	4000	431432.6124	166.5613	58.6989	62.7151	63.7316	64.7318	0
303	14	14	1	5	601.3373	35	1	4000	431432.6124	166.5613	64.7482	68.7644	69.7810	70.7812	0
303	14	15	1	5	592.6775	35	0	4000	431432.6124	166.5613	70.7976	74.8139	75.8304	76.8306	0
303	14	16	1	5	1000.1549	1	0	4000	431432.6124	166.5613	77.8635	81.8901	82.9066	83.9074	0
303	14	17	1	5	762.4425	35	1	4000	431432.6124	166.5613	84.9397	88.9559	89.9724	90.9726	0
303	14	18	1	5	529.3671	32	1	4000	431432.6124	166.5613	90.9890	95.0052	96.0218	97.0220	0
303	14	19	1	5	463.2993	35	0	4000	431432.6124	166.5613	97.0382	101.0546	102.0710	103.0712	0
303	14	20	1	5	742.1630	35	1	4000	431432.6124	166.5613	104.1042	108.1204	109.1369	110.1371	0
303	14	21	1	5	724.6547	32	1	4000	431432.6124	166.5613	110.1535	114.1697	115.1862	116.1863	0
303	14	22	1	5	667.4086	35	1	4000	431432.6124	166.5613	116.2028	120.2190	121.2356	122.2357	0
303	14	23	1	5	522.5141	32	1	4000	431432.6124	166.5613	122.2521	126.2683	127.2848	128.2850	0
303	14	24	1	5	 0.5466	32	1	4000	431432.6124	166.5613	128.3014	132.3176	133.3341	134.3343	0
303	14	25	1	5	975.7341	35	1	4000	431432.6124	166.5613	134.3506	138.3669	139.3834	140.3836	0
303	14	26	1	5	542.6074	35	0	4000	431432.6124	166.5613	140.4000	144.4162	145.4327	146.4329	0
303	14	27	1	5	804.5411	32	1	4000	431432.6124	166.5613	147.4659	151.4821	152.4986	153.4988	0
303	14	28	1	5	498.8244	32	1	4000	431432.6124	166.5613	153.5152	157.5313	158.5479	159.5481	0
303	14	29	1	5	554.0163	35	1	4000	431432.6124	166.5613	159.5644	163.5807	164.5972	165.5974	0
303	14	30	1	5	816.6689	32	1	4000	431432.6124	166.5613	165.6136	169.6299	170.6465	171.6467	0
303	15	1	1	5	760.8580	35	1	1000	431432.6124	171.6489	 0.0132	 1.0299	 2.0464	 3.0466	0
303	15	2	1	5	446.9288	35	1	1000	431432.6124	171.6489	 3.0629	 4.0795	 5.0960	 6.0962	0
303	15	3	1	5	493.3061	35	1	1000	431432.6124	171.6489	 6.1127	 7.1292	 8.1458	 9.1460	0
303	15	4	1	5	769.6646	35	1	1000	431432.6124	171.6489	 9.1623	10.1789	11.2046	12.2047	0
303	15	5	1	5	632.6417	35	1	1000	431432.6124	171.6489	12.2211	13.2377	14.2542	15.2543	0
303	15	6	1	5	575.0321	35	1	1000	431432.6124	171.6489	15.2707	16.2872	17.3038	18.3040	0
303	15	7	1	5	502.0048	35	1	4000	431432.6124	171.6489	18.3204	22.3366	23.3531	24.3532	0
303	15	8	1	5	659.8551	35	1	4000	431432.6124	171.6489	24.3697	28.3859	29.4024	30.4026	0
303	15	9	1	5	794.7169	32	1	4000	431432.6124	171.6489	30.4190	34.4352	35.4517	36.4519	0
303	15	10	1	5	457.9054	32	1	4000	431432.6124	171.6489	36.4683	40.4844	41.5010	42.5012	0
303	15	11	1	5	760.1461	35	0	4000	431432.6124	171.6489	42.5176	46.5338	47.5502	48.5505	0
303	15	12	1	5	734.8078	32	1	4000	431432.6124	171.6489	49.5834	53.5997	54.6162	55.6163	0
303	15	13	1	5	789.7241	35	1	4000	431432.6124	171.6489	55.6327	59.6489	60.6655	61.6657	0
303	15	14	1	5	540.2642	32	1	4000	431432.6124	171.6489	61.6820	65.6983	66.7147	67.7149	0
303	15	15	1	5	594.3061	35	1	4000	431432.6124	171.6489	67.7313	71.7475	72.7641	73.7643	0
303	15	16	1	5	713.5507	35	1	4000	431432.6124	171.6489	73.7806	77.7968	78.8134	79.8136	0
303	15	17	1	5	912.2138	32	1	4000	431432.6124	171.6489	79.8300	83.8461	84.8627	85.8629	0
303	15	18	1	5	999.8115	1	0	4000	431432.6124	171.6489	85.8792	89.8955	90.9120	91.9124	0
303	15	19	1	5	965.1280	32	1	4000	431432.6124	171.6489	92.9451	96.9613	97.9778	98.9779	0
303	15	20	1	5	540.0648	32	1	4000	431432.6124	171.6489	98.9944	103.0105	104.0271	105.0273	0
303	15	21	1	5	546.6821	32	1	4000	431432.6124	171.6489	105.0437	109.0599	110.0765	111.0767	0
303	15	22	1	5	633.0840	32	0	4000	431432.6124	171.6489	111.0929	115.1092	116.1258	117.1260	0
303	15	23	1	5	463.4419	35	1	4000	431432.6124	171.6489	118.1590	122.1750	123.1916	124.1918	0
303	15	24	1	5	846.2027	32	1	4000	431432.6124	171.6489	124.2082	128.2243	129.2409	130.2411	0
303	15	25	1	5	860.3234	32	1	4000	431432.6124	171.6489	130.2574	134.2736	135.2902	136.2904	0
303	15	26	1	5	515.8542	35	0	4000	431432.6124	171.6489	136.3066	140.3230	141.3395	142.3397	0
303	15	27	1	5	873.7099	32	1	4000	431432.6124	171.6489	143.3726	147.3888	148.4054	149.4056	0
303	15	28	1	5	999.8108	1	0	4000	431432.6124	171.6489	149.4218	153.4381	154.4546	155.4551	0
303	15	29	1	5	934.7210	32	1	4000	431432.6124	171.6489	156.4879	160.5040	161.5205	162.5207	0
303	15	30	1	5	999.8285	1	0	4000	431432.6124	171.6489	162.5370	166.5533	167.5698	168.5703	0
SUBID	BLOCK	TRIAL	REP	RUNID	RT	RESP	ACC	RSIJIT	EV_START	EV_BLOCK	EV_TRIAL	EV_RETRIEVAL	EV_PROBE	EV_RESP	EV_BLEND
303	16	1	1	6	674.2544	35	1	1000	432068.5394	 0.0043	 0.0178	 1.0343	 2.0510	 3.0557	0
303	16	2	1	6	655.6438	35	1	1000	432068.5394	 0.0043	 3.0774	 4.0940	 5.1105	 6.1110	0
303	16	3	1	6	1000.1001	1	0	1000	432068.5394	 0.0043	 6.1271	 7.1436	 8.1602	 9.1616	0
303	16	4	1	6	750.2019	35	1	1000	432068.5394	 0.0043	10.1996	11.2162	12.2327	13.2329	0
303	16	5	1	6	747.7794	32	1	1000	432068.5394	 0.0043	13.2493	14.2658	15.2824	16.2826	0
303	16	6	1	6	466.3108	32	1	1000	432068.5394	 0.0043	16.2989	17.3155	18.3320	19.3322	0
303	16	7	1	6	521.7463	32	1	4000	432068.5394	 0.0043	19.3486	23.3648	24.3814	25.3817	0
303	16	8	1	6	464.3319	32	1	4000	432068.5394	 0.0043	25.3980	29.4141	30.4307	31.4309	0
303	16	9	1	6	734.9281	35	1	4000	432068.5394	 0.0043	31.4472	35.4634	36.4799	37.4801	0
303	16	10	1	6	492.8977	35	1	4000	432068.5394	 0.0043	37.4965	41.5127	42.5293	43.5295	0
303	16	11	1	6	803.6252	32	1	4000	432068.5394	 0.0043	43.5458	47.5620	48.5786	49.5788	0
303	16	12	1	6	779.1932	35	1	4000	432068.5394	 0.0043	49.5951	53.6113	54.6279	55.6281	0
303	16	13	1	6	529.2529	32	1	4000	432068.5394	 0.0043	55.6444	59.6607	60.6772	61.6774	0
303	16	14	1	6	512.1364	35	1	4000	432068.5394	 0.0043	61.6937	65.7099	66.7264	67.7265	0
303	16	15	1	6	526.8402	32	1	4000	432068.5394	 0.0043	67.7430	71.7592	72.7757	73.7759	0
303	16	16	1	6	437.2821	35	1	4000	432068.5394	 0.0043	73.7924	77.8085	78.8251	79.8253	0
303	16	17	1	6	900.4617	32	1	4000	432068.5394	 0.0043	79.8416	83.8577	84.8744	85.8746	0
303	16	18	1	6	467.4710	35	1	4000	432068.5394	 0.0043	85.8910	89.9070	90.9236	91.9237	0
303	16	19	1	6	530.3450	35	1	4000	432068.5394	 0.0043	91.9402	95.9565	96.9730	97.9732	0
303	16	20	1	6	999.5630	1	0	4000	432068.5394	 0.0043	97.9895	102.0057	103.0222	104.0224	0
303	16	21	1	6	486.3383	35	1	4000	432068.5394	 0.0043	105.0553	109.0716	110.0882	111.0884	0
303	16	22	1	6	549.7142	32	1	4000	432068.5394	 0.0043	111.1047	115.1209	116.1375	117.1377	0
303	16	23	1	6	999.9136	1	0	4000	432068.5394	 0.0043	117.1539	121.1703	122.1868	123.1873	0
303	16	24	1	6	530.3293	32	1	4000	432068.5394	 0.0043	124.2197	128.2360	129.2526	130.2528	0
303	16	25	1	6	793.4694	35	1	4000	432068.5394	 0.0043	130.2691	134.2853	135.3019	136.3021	0
303	16	26	1	6	495.9398	35	1	4000	432068.5394	 0.0043	136.3184	140.3347	141.3512	142.3514	0
303	16	27	1	6	454.0050	32	1	4000	432068.5394	 0.0043	142.3677	146.3839	147.4005	148.4007	0
303	16	28	1	6	999.7031	1	0	4000	432068.5394	 0.0043	148.4170	152.4332	153.4498	154.4501	0
303	16	29	1	6	483.2886	35	1	4000	432068.5394	 0.0043	155.4829	159.4991	160.5157	161.5159	0
303	16	30	1	6	593.4722	32	1	4000	432068.5394	 0.0043	161.5322	165.5484	166.5649	167.5651	0
303	17	1	1	6	670.4374	32	1	1000	432068.5394	167.5673	 0.0150	 1.0314	 2.0480	 3.0482	0
303	17	2	1	6	484.9219	35	1	1000	432068.5394	167.5673	 3.0647	 4.0811	 5.0977	 6.0979	0
303	17	3	1	6	603.7492	32	1	1000	432068.5394	167.5673	 6.1142	 7.1309	 8.1475	 9.1476	0
303	17	4	1	6	953.4824	35	0	1000	432068.5394	167.5673	 9.1641	10.1805	11.1971	12.1973	0
303	17	5	1	6	626.8011	35	1	1000	432068.5394	167.5673	13.2346	14.2511	15.2677	16.2678	0
303	17	6	1	6	609.6012	32	1	1000	432068.5394	167.5673	16.2842	17.3008	18.3173	19.3174	0
303	17	7	1	6	999.6442	1	0	4000	432068.5394	167.5673	19.3338	23.3501	24.3666	25.3669	0
303	17	8	1	6	566.5671	32	1	4000	432068.5394	167.5673	26.3997	30.4159	31.4325	32.4327	0
303	17	9	1	6	564.9368	35	1	4000	432068.5394	167.5673	32.4490	36.4652	37.4817	38.4819	0
303	17	10	1	6	900.1718	35	1	4000	432068.5394	167.5673	38.4984	42.5145	43.5311	44.5312	0
303	17	11	1	6	522.6529	35	1	4000	432068.5394	167.5673	44.5476	48.5638	49.5804	50.5806	0
303	17	12	1	6	999.9303	1	0	4000	432068.5394	167.5673	50.5969	54.6131	55.6296	56.6302	0
303	17	13	1	6	623.4193	32	1	4000	432068.5394	167.5673	57.6630	61.6790	62.6955	63.6957	0
303	17	14	1	6	438.0843	35	1	4000	432068.5394	167.5673	63.7121	67.7282	68.7448	69.7450	0
303	17	15	1	6	492.9002	35	1	4000	432068.5394	167.5673	69.7614	73.7777	74.7941	75.7943	0
303	17	16	1	6	443.0870	35	1	4000	432068.5394	167.5673	75.8106	79.8268	80.8434	81.8436	0
303	17	17	1	6	594.2332	32	1	4000	432068.5394	167.5673	81.8600	85.8762	86.8927	87.8929	0
303	17	18	1	6	729.1629	35	1	4000	432068.5394	167.5673	87.9092	91.9255	92.9420	93.9422	0
303	17	19	1	6	999.9909	1	0	4000	432068.5394	167.5673	93.9585	97.9748	98.9912	99.9918	0
303	17	20	1	6	1000.0832	1	0	4000	432068.5394	167.5673	101.0244	105.0406	106.0574	107.0581	0
303	17	21	1	6	683.5501	32	1	4000	432068.5394	167.5673	108.0903	112.1065	113.1230	114.1232	0
303	17	22	1	6	481.9003	32	1	4000	432068.5394	167.5673	114.1396	118.1558	119.1723	120.1726	0
303	17	23	1	6	 0.5479	32	0	4000	432068.5394	167.5673	120.1889	124.2051	125.2217	126.2219	0
303	17	24	1	6	615.2176	32	1	4000	432068.5394	167.5673	127.2548	131.2708	132.2874	133.2875	0
303	17	25	1	6	518.1992	32	1	4000	432068.5394	167.5673	133.3040	137.3203	138.3368	139.3370	0
303	17	26	1	6	781.1271	35	0	4000	432068.5394	167.5673	139.3534	143.3695	144.3861	145.3863	0
303	17	27	1	6	690.2385	35	1	4000	432068.5394	167.5673	146.4192	150.4354	151.4519	152.4521	0
303	17	28	1	6	745.2922	32	1	4000	432068.5394	167.5673	152.4685	156.4847	157.5012	158.5014	0
303	17	29	1	6	1000.0238	1	0	4000	432068.5394	167.5673	158.5178	162.5339	163.5506	164.5512	0
303	17	30	1	6	478.5044	35	1	4000	432068.5394	167.5673	165.5836	169.5999	170.6165	171.6166	0
303	18	1	1	6	491.8379	35	1	1000	432068.5394	171.6184	 0.0158	 1.0351	 2.0516	 3.0518	0
303	18	2	1	6	642.2194	32	1	1000	432068.5394	171.6184	 3.0681	 4.0847	 5.1012	 6.1014	0
303	18	3	1	6	456.2705	35	0	1000	432068.5394	171.6184	 6.1178	 7.1343	 8.1507	 9.1509	0
303	18	4	1	6	662.3160	32	1	1000	432068.5394	171.6184	10.1839	11.2005	12.2171	13.2172	0
303	18	5	1	6	987.9582	35	1	1000	432068.5394	171.6184	13.2337	14.2501	15.2667	16.2669	0
303	18	6	1	6	634.7050	32	1	1000	432068.5394	171.6184	16.2833	17.2998	18.3164	19.3166	0
303	18	7	1	6	505.9156	35	1	4000	432068.5394	171.6184	19.3329	23.3491	24.3656	25.3658	0
303	18	8	1	6	608.1973	35	1	4000	432068.5394	171.6184	25.3822	29.3984	30.4149	31.4150	0
303	18	9	1	6	999.9984	1	0	4000	432068.5394	171.6184	31.4314	35.4476	36.4643	37.4649	0
303	18	10	1	6	532.3969	32	1	4000	432068.5394	171.6184	38.4974	42.5136	43.5301	44.5303	0
303	18	11	1	6	491.3290	35	1	4000	432068.5394	171.6184	44.5467	48.5629	49.5794	50.5796	0
303	18	12	1	6	593.9063	35	1	4000	432068.5394	171.6184	50.5958	54.6122	55.6287	56.6289	0
303	18	13	1	6	552.7997	35	1	4000	432068.5394	171.6184	56.6452	60.6615	61.6780	62.6782	0
303	18	14	1	6	944.0735	35	1	4000	432068.5394	171.6184	62.6946	66.7106	67.7273	68.7275	0
303	18	15	1	6	582.5098	32	1	4000	432068.5394	171.6184	68.7439	72.7600	73.7766	74.7768	0
303	18	16	1	6	999.7797	1	0	4000	432068.5394	171.6184	74.7932	78.8094	79.8259	80.8264	0
303	18	17	1	6	507.5962	32	1	4000	432068.5394	171.6184	81.8590	85.8753	86.8918	87.8920	0
303	18	18	1	6	514.2756	35	1	4000	432068.5394	171.6184	87.9083	91.9245	92.9411	93.9413	0
303	18	19	1	6	464.9620	32	1	4000	432068.5394	171.6184	93.9576	97.9738	98.9904	99.9906	0
303	18	20	1	6	495.3186	32	1	4000	432068.5394	171.6184	100.0069	104.0232	105.0397	106.0399	0
303	18	21	1	6	486.0363	32	1	4000	432068.5394	171.6184	106.0562	110.0725	111.0890	112.0892	0
303	18	22	1	6	900.7103	32	0	4000	432068.5394	171.6184	112.1056	116.1217	117.1383	118.1384	0
303	18	23	1	6	562.6525	32	1	4000	432068.5394	171.6184	119.1714	123.1876	124.2041	125.2043	0
303	18	24	1	6	553.5628	35	1	4000	432068.5394	171.6184	125.2207	129.2369	130.2535	131.2537	0
303	18	25	1	6	784.6840	35	0	4000	432068.5394	171.6184	131.2699	135.2862	136.3027	137.3030	0
303	18	26	1	6	550.7748	35	1	4000	432068.5394	171.6184	138.3359	142.3521	143.3686	144.3688	0
303	18	27	1	6	999.8230	1	0	4000	432068.5394	171.6184	144.3851	148.4014	149.4180	150.4184	0
303	18	28	1	6	707.0798	35	1	4000	432068.5394	171.6184	151.4510	155.4672	156.4838	157.4839	0
303	18	29	1	6	506.3464	32	1	4000	432068.5394	171.6184	157.5003	161.5165	162.5331	163.5333	0
303	18	30	1	6	497.3884	35	0	4000	432068.5394	171.6184	163.5496	167.5658	168.5824	169.5826	0
SUBID	BLOCK	TRIAL	REP	RUNID	RT	RESP	ACC	RSIJIT	EV_START	EV_BLOCK	EV_TRIAL	EV_RETRIEVAL	EV_PROBE	EV_RESP	EV_BLEND
303	19	1	1	7	551.1340	35	1	1000	432722.6505	 0.0043	 0.0215	 1.0383	 2.0549	 3.0595	0
303	19	2	1	7	462.9851	35	1	1000	432722.6505	 0.0043	 3.0714	 4.0880	 5.1044	 6.1049	0
303	19	3	1	7	692.7189	32	1	1000	432722.6505	 0.0043	 6.1210	 7.1376	 8.1542	 9.1547	0
303	19	4	1	7	459.4075	35	1	1000	432722.6505	 0.0043	 9.1706	10.1871	11.2038	12.2040	0
303	19	5	1	7	465.4093	32	1	1000	432722.6505	 0.0043	12.2204	13.2369	14.2535	15.2537	0
303	19	6	1	7	471.8241	35	1	1000	432722.6505	 0.0043	15.2700	16.2866	17.3032	18.3034	0
303	19	7	1	7	415.2976	35	1	4000	432722.6505	 0.0043	18.3197	22.3361	23.3525	24.3527	0
303	19	8	1	7	493.8356	32	1	4000	432722.6505	 0.0043	24.3690	28.3853	29.4019	30.4021	0
303	19	9	1	7	444.5564	35	1	4000	432722.6505	 0.0043	30.4185	34.4347	35.4513	36.4515	0
303	19	10	1	7	474.2241	35	1	4000	432722.6505	 0.0043	36.4679	40.4841	41.5006	42.5007	0
303	19	11	1	7	417.8150	35	1	4000	432722.6505	 0.0043	42.5172	46.5334	47.5500	48.5502	0
303	19	12	1	7	544.1542	35	1	4000	432722.6505	 0.0043	48.5665	52.5828	53.5994	54.5996	0
303	19	13	1	7	430.9440	35	1	4000	432722.6505	 0.0043	54.6159	58.6321	59.6487	60.6489	0
303	19	14	1	7	517.6304	32	1	4000	432722.6505	 0.0043	60.6653	64.6815	65.6981	66.6983	0
303	19	15	1	7	460.0873	32	1	4000	432722.6505	 0.0043	66.7147	70.7309	71.7475	72.7477	0
303	19	16	1	7	554.5152	35	1	4000	432722.6505	 0.0043	72.7640	76.7803	77.7969	78.7971	0
303	19	17	1	7	585.1709	35	1	4000	432722.6505	 0.0043	78.8134	82.8296	83.8462	84.8464	0
303	19	18	1	7	496.2314	32	1	4000	432722.6505	 0.0043	84.8628	88.8791	89.8955	90.8957	0
303	19	19	1	7	462.7407	35	1	4000	432722.6505	 0.0043	90.9121	94.9284	95.9449	96.9451	0
303	19	20	1	7	501.4992	32	1	4000	432722.6505	 0.0043	96.9615	100.9777	101.9943	102.9945	0
303	19	21	1	7	747.1872	35	1	4000	432722.6505	 0.0043	103.0109	107.0271	108.0436	109.0438	0
303	19	22	1	7	514.0040	32	1	4000	432722.6505	 0.0043	109.0602	113.0764	114.0931	115.0932	0
303	19	23	1	7	521.3063	35	1	4000	432722.6505	 0.0043	115.1096	119.1259	120.1424	121.1426	0
303	19	24	1	7	559.1137	35	1	4000	432722.6505	 0.0043	121.1590	125.1752	126.1918	127.1920	0
303	19	25	1	7	557.9126	35	1	4000	432722.6505	 0.0043	127.2083	131.2246	132.2412	133.2414	0
303	19	26	1	7	516.6760	35	1	4000	432722.6505	 0.0043	133.2577	137.2739	138.2905	139.2907	0
303	19	27	1	7	603.7441	32	1	4000	432722.6505	 0.0043	139.3071	143.3233	144.3399	145.3401	0
303	19	28	1	7	554.0997	32	1	4000	432722.6505	 0.0043	145.3564	149.3727	150.3893	151.3894	0
303	19	29	1	7	448.8857	35	1	4000	432722.6505	 0.0043	151.4058	155.4220	156.4386	157.4388	0
303	19	30	1	7	478.8123	35	1	4000	432722.6505	 0.0043	157.4553	161.4715	162.4880	163.4882	0
303	20	1	1	7	503.7461	35	1	1000	432722.6505	163.4902	 0.0142	 1.0307	 2.0474	 3.0476	0
303	20	2	1	7	454.4525	35	1	1000	432722.6505	163.4902	 3.0638	 4.0804	 5.0970	 6.0972	0
303	20	3	1	7	636.2120	32	1	1000	432722.6505	163.4902	 6.1135	 7.1301	 8.1467	 9.1469	0
303	20	4	1	7	827.5592	35	1	1000	432722.6505	163.4902	 9.1632	10.1798	11.1964	12.1966	0
303	20	5	1	7	657.4826	32	1	1000	432722.6505	163.4902	12.2129	13.2295	14.2460	15.2462	0
303	20	6	1	7	527.6110	32	1	1000	432722.6505	163.4902	15.2626	16.2792	17.2956	18.2958	0
303	20	7	1	7	573.7682	32	1	4000	432722.6505	163.4902	18.3123	22.3285	23.3450	24.3452	0
303	20	8	1	7	988.7327	35	1	4000	432722.6505	163.4902	24.3616	28.3779	29.3945	30.3947	0
303	20	9	1	7	483.9908	32	1	4000	432722.6505	163.4902	30.4110	34.4272	35.4439	36.4441	0
303	20	10	1	7	514.0296	32	1	4000	432722.6505	163.4902	36.4604	40.4766	41.4931	42.4933	0
303	20	11	1	7	681.0420	32	1	4000	432722.6505	163.4902	42.5097	46.5260	47.5425	48.5427	0
303	20	12	1	7	479.8873	32	1	4000	432722.6505	163.4902	48.5590	52.5754	53.5919	54.5921	0
303	20	13	1	7	999.7828	1	0	4000	432722.6505	163.4902	54.6084	58.6247	59.6413	60.6421	0
303	20	14	1	7	500.6280	35	1	4000	432722.6505	163.4902	61.6744	65.6906	66.7072	67.7074	0
303	20	15	1	7	596.9496	35	1	4000	432722.6505	163.4902	67.7238	71.7538	72.7704	73.7706	0
303	20	16	1	7	552.4514	35	1	4000	432722.6505	163.4902	73.7897	77.8060	78.8226	79.8229	0
303	20	17	1	7	767.8452	32	1	4000	432722.6505	163.4902	79.8392	83.8555	84.8719	85.8721	0
303	20	18	1	7	638.0951	32	1	4000	432722.6505	163.4902	85.8885	89.9047	90.9215	91.9216	0
303	20	19	1	7	548.2174	35	1	4000	432722.6505	163.4902	91.9379	95.9542	96.9706	97.9708	0
303	20	20	1	7	999.7043	1	0	4000	432722.6505	163.4902	97.9872	102.0035	103.0201	104.0204	0
303	20	21	1	7	580.1048	35	1	4000	432722.6505	163.4902	105.0532	109.0694	110.0994	111.0996	0
303	20	22	1	7	570.9998	32	1	4000	432722.6505	163.4902	111.1160	115.1321	116.1487	117.1489	0
303	20	23	1	7	999.9343	1	0	4000	432722.6505	163.4902	117.1653	121.1848	122.2014	123.2019	0
303	20	24	1	7	637.6629	35	1	4000	432722.6505	163.4902	124.2512	128.2674	129.2972	130.2974	0
303	20	25	1	7	999.6148	1	0	4000	432722.6505	163.4902	130.3137	134.3335	135.3500	136.3503	0
303	20	26	1	7	671.2740	32	1	4000	432722.6505	163.4902	137.3831	141.3994	142.4159	143.4161	0
303	20	27	1	7	 0.5391	32	0	4000	432722.6505	163.4902	143.4325	147.4487	148.4654	149.4656	0
303	20	28	1	7	 0.5440	32	1	4000	432722.6505	163.4902	150.4984	154.5146	155.5312	156.5314	0
303	20	29	1	7	 0.5361	32	1	4000	432722.6505	163.4902	156.5478	160.5641	161.5807	162.5809	0
303	20	30	1	7	 0.5381	32	1	4000	432722.6505	163.4902	162.5971	166.6134	167.6299	168.6301	0
303	21	1	1	7	766.2456	35	1	1000	432722.6505	168.6315	 0.0081	 1.0249	 2.0414	 3.0416	0
303	21	2	1	7	596.9588	35	1	1000	432722.6505	168.6315	 3.0580	 4.0747	 5.0911	 6.0913	0
303	21	3	1	7	810.1435	32	1	1000	432722.6505	168.6315	 6.1076	 7.1243	 8.1408	 9.1410	0
303	21	4	1	7	576.9878	35	0	1000	432722.6505	168.6315	 9.1573	10.1740	11.1904	12.1906	0
303	21	5	1	7	838.7845	35	1	1000	432722.6505	168.6315	13.2236	14.2401	15.2567	16.2569	0
303	21	6	1	7	773.7588	32	0	1000	432722.6505	168.6315	16.2733	17.2899	18.3064	19.3066	0
303	21	7	1	7	999.6646	1	0	4000	432722.6505	168.6315	20.3397	24.3557	25.3723	26.3726	0
303	21	8	1	7	1000.1260	1	0	4000	432722.6505	168.6315	27.4055	31.4217	32.4383	33.4390	0
303	21	9	1	7	510.8731	35	1	4000	432722.6505	168.6315	34.4714	38.4876	39.5041	40.5043	0
303	21	10	1	7	1000.0418	1	0	4000	432722.6505	168.6315	40.5207	44.5370	45.5535	46.5542	0
303	21	11	1	7	564.4729	32	1	4000	432722.6505	168.6315	47.5867	51.6029	52.6194	53.6196	0
303	21	12	1	7	999.8568	1	0	4000	432722.6505	168.6315	53.6360	57.6522	58.6688	59.6693	0
303	21	13	1	7	600.6434	35	1	4000	432722.6505	168.6315	60.7019	64.7182	65.7348	66.7350	0
303	21	14	1	7	575.8089	32	1	4000	432722.6505	168.6315	66.7514	70.7676	71.7841	72.7843	0
303	21	15	1	7	485.9482	32	1	4000	432722.6505	168.6315	72.8007	76.8169	77.8335	78.8337	0
303	21	16	1	7	1000.0256	1	0	4000	432722.6505	168.6315	78.8501	82.8663	83.8947	84.8954	0
303	21	17	1	7	766.4684	35	1	4000	432722.6505	168.6315	85.9276	89.9439	90.9605	91.9607	0
303	21	18	1	7	517.4047	35	1	4000	432722.6505	168.6315	91.9770	95.9933	97.0098	98.0099	0
303	21	19	1	7	532.5897	32	1	4000	432722.6505	168.6315	98.0264	102.0425	103.0591	104.0593	0
303	21	20	1	7	602.5633	35	0	4000	432722.6505	168.6315	104.0756	108.0918	109.1084	110.1086	0
303	21	21	1	7	860.0885	32	1	4000	432722.6505	168.6315	111.1467	115.1628	116.1795	117.1797	0
303	21	22	1	7	999.6759	1	0	4000	432722.6505	168.6315	117.1960	121.2123	122.2289	123.2293	0
303	21	23	1	7	548.9686	32	1	4000	432722.6505	168.6315	124.2733	128.2896	129.3060	130.3062	0
303	21	24	1	7	467.9706	35	1	4000	432722.6505	168.6315	130.3226	134.3389	135.3554	136.3556	0
303	21	25	1	7	999.8127	1	0	4000	432722.6505	168.6315	136.3719	140.3881	141.4048	142.4053	0
303	21	26	1	7	707.0315	32	1	4000	432722.6505	168.6315	143.4433	147.4596	148.4761	149.4764	0
303	21	27	1	7	506.1720	35	1	4000	432722.6505	168.6315	149.4926	153.5089	154.5254	155.5256	0
303	21	28	1	7	999.7495	1	0	4000	432722.6505	168.6315	155.5421	159.5583	160.5748	161.5753	0
303	21	29	1	7	446.2897	35	1	4000	432722.6505	168.6315	162.6079	166.6242	167.6407	168.6409	0
303	21	30	1	7	461.2497	35	1	4000	432722.6505	168.6315	168.6573	172.6736	173.6902	174.6903	0
SUBID	BLOCK	TRIAL	REP	RUNID	RT	RESP	ACC	RSIJIT	EV_START	EV_BLOCK	EV_TRIAL	EV_RETRIEVAL	EV_PROBE	EV_RESP	EV_BLEND
303	22	1	1	8	786.7816	32	1	1000	433346.0742	 0.0031	 0.0110	 1.0276	 2.0442	 3.0449	0
303	22	2	1	8	654.6873	35	0	1000	433346.0742	 0.0031	 3.0705	 4.0870	 5.1035	 6.1040	0
303	22	3	1	8	516.0962	35	1	1000	433346.0742	 0.0031	 7.1435	 8.1698	 9.1865	10.1870	0
303	22	4	1	8	682.4179	32	0	1000	433346.0742	 0.0031	10.2029	11.2196	12.2361	13.2365	0
303	22	5	1	8	391.0199	35	1	1000	433346.0742	 0.0031	14.2764	15.2930	16.3095	17.3143	0
303	22	6	1	8	431.5713	35	1	1000	433346.0742	 0.0031	17.3258	18.3423	19.3589	20.3591	0
303	22	7	1	8	470.0766	35	1	4000	433346.0742	 0.0031	20.3754	24.3917	25.4083	26.4086	0
303	22	8	1	8	420.7167	35	1	4000	433346.0742	 0.0031	26.4249	30.4411	31.4576	32.4578	0
303	22	9	1	8	450.9765	35	1	4000	433346.0742	 0.0031	32.4742	36.4905	37.5164	38.5166	0
303	22	10	1	8	633.6227	32	1	4000	433346.0742	 0.0031	38.5330	42.5492	43.5657	44.5659	0
303	22	11	1	8	471.6016	35	1	4000	433346.0742	 0.0031	44.5823	48.5984	49.6150	50.6152	0
303	22	12	1	8	559.1710	32	1	4000	433346.0742	 0.0031	50.6315	54.6477	55.6643	56.6645	0
303	22	13	1	8	493.1737	32	1	4000	433346.0742	 0.0031	56.6808	60.6971	61.7136	62.7138	0
303	22	14	1	8	691.7663	35	0	4000	433346.0742	 0.0031	62.7301	66.7464	67.7629	68.7631	0
303	22	15	1	8	481.6992	35	1	4000	433346.0742	 0.0031	69.7960	73.8122	74.8288	75.8290	0
303	22	16	1	8	561.2526	32	1	4000	433346.0742	 0.0031	75.8453	79.8615	80.8781	81.8783	0
303	22	17	1	8	479.4206	35	1	4000	433346.0742	 0.0031	81.8946	85.9109	86.9273	87.9275	0
303	22	18	1	8	549.8901	35	1	4000	433346.0742	 0.0031	87.9439	91.9601	92.9767	93.9768	0
303	22	19	1	8	492.3825	35	1	4000	433346.0742	 0.0031	93.9932	98.0094	99.0260	100.0262	0
303	22	20	1	8	531.5291	32	1	4000	433346.0742	 0.0031	100.0426	104.0587	105.0753	106.0755	0
303	22	21	1	8	482.1220	32	1	4000	433346.0742	 0.0031	106.0919	110.1081	111.1246	112.1248	0
303	22	22	1	8	992.9999	32	1	4000	433346.0742	 0.0031	112.1412	116.1574	117.1739	118.1741	0
303	22	23	1	8	543.9805	35	1	4000	433346.0742	 0.0031	118.1904	122.2066	123.2231	124.2233	0
303	22	24	1	8	510.0005	32	1	4000	433346.0742	 0.0031	124.2397	128.2560	129.2725	130.2727	0
303	22	25	1	8	628.9059	35	1	4000	433346.0742	 0.0031	130.2891	134.3053	135.3218	136.3220	0
303	22	26	1	8	467.8959	32	1	4000	433346.0742	 0.0031	136.3384	140.3545	141.3711	142.3713	0
303	22	27	1	8	490.8571	32	1	4000	433346.0742	 0.0031	142.3877	146.4039	147.4204	148.4206	0
303	22	28	1	8	545.4717	32	1	4000	433346.0742	 0.0031	148.4369	152.4532	153.4697	154.4699	0
303	22	29	1	8	479.3128	32	1	4000	433346.0742	 0.0031	154.4863	158.5025	159.5190	160.5192	0
303	22	30	1	8	486.6480	35	1	4000	433346.0742	 0.0031	160.5355	164.5518	165.5683	166.5685	0
303	23	1	1	8	492.5664	32	1	1000	433346.0742	166.5701	 0.0178	 1.0346	 2.0511	 3.0513	0
303	23	2	1	8	555.0191	32	1	1000	433346.0742	166.5701	 3.0676	 4.0841	 5.1007	 6.1009	0
303	23	3	1	8	999.8493	1	0	1000	433346.0742	166.5701	 6.1173	 7.1338	 8.1504	 9.1514	0
303	23	4	1	8	679.5400	35	1	1000	433346.0742	166.5701	10.1915	11.2078	12.2244	13.2246	0
303	23	5	1	8	437.9088	35	1	1000	433346.0742	166.5701	13.2410	14.2575	15.2741	16.2743	0
303	23	6	1	8	596.3204	35	1	1000	433346.0742	166.5701	16.2906	17.3072	18.3237	19.3239	0
303	23	7	1	8	490.5292	35	1	4000	433346.0742	166.5701	19.3402	23.3565	24.3731	25.3732	0
303	23	8	1	8	505.3771	35	1	4000	433346.0742	166.5701	25.3896	29.4058	30.4224	31.4226	0
303	23	9	1	8	552.2892	32	1	4000	433346.0742	166.5701	31.4389	35.4551	36.4717	37.4719	0
303	23	10	1	8	814.8121	35	0	4000	433346.0742	166.5701	37.4882	41.5044	42.5209	43.5211	0
303	23	11	1	8	 0.5225	35	1	4000	433346.0742	166.5701	44.5539	48.5702	49.5868	50.5870	0
303	23	12	1	8	851.7901	35	1	4000	433346.0742	166.5701	50.6033	54.6196	55.6361	56.6363	0
303	23	13	1	8	618.2068	32	1	4000	433346.0742	166.5701	56.6526	60.6689	61.6854	62.6856	0
303	23	14	1	8	480.5904	32	1	4000	433346.0742	166.5701	62.7019	66.7181	67.7347	68.7349	0
303	23	15	1	8	471.0474	35	1	4000	433346.0742	166.5701	68.7512	72.7673	73.7840	74.7842	0
303	23	16	1	8	438.4161	35	1	4000	433346.0742	166.5701	74.8005	78.8167	79.8333	80.8336	0
303	23	17	1	8	493.3612	32	1	4000	433346.0742	166.5701	80.8498	84.8660	85.8825	86.8827	0
303	23	18	1	8	1000.1306	1	0	4000	433346.0742	166.5701	86.8991	90.9154	91.9319	92.9327	0
303	23	19	1	8	617.2617	32	1	4000	433346.0742	166.5701	93.9650	97.9812	98.9978	99.9980	0
303	23	20	1	8	961.0239	35	1	4000	433346.0742	166.5701	100.0143	104.0302	105.0470	106.0472	0
303	23	21	1	8	999.5783	1	0	4000	433346.0742	166.5701	106.0637	110.0797	111.0963	112.0966	0
303	23	22	1	8	629.0655	32	1	4000	433346.0742	166.5701	113.1294	117.1457	118.1622	119.1624	0
303	23	23	1	8	999.5753	1	0	4000	433346.0742	166.5701	119.1788	123.1950	124.2115	125.2118	0
303	23	24	1	8	561.9871	32	1	4000	433346.0742	166.5701	126.2446	130.2608	131.2774	132.2776	0
303	23	25	1	8	473.1624	35	1	4000	433346.0742	166.5701	132.2939	136.3101	137.3267	138.3269	0
303	23	26	1	8	999.5941	1	0	4000	433346.0742	166.5701	138.3433	142.3595	143.3759	144.3763	0
303	23	27	1	8	557.8751	32	1	4000	433346.0742	166.5701	145.4091	149.4253	150.4419	151.4421	0
303	23	28	1	8	1000.0250	1	0	4000	433346.0742	166.5701	151.4584	155.4746	156.4912	157.4918	0
303	23	29	1	8	999.9868	1	0	4000	433346.0742	166.5701	158.5242	162.5404	163.5570	164.5576	0
303	23	30	1	8	999.6490	1	0	4000	433346.0742	166.5701	165.5901	169.6063	170.6228	171.6230	0
303	24	1	1	8	699.2673	32	1	1000	433346.0742	172.6420	 0.0108	 1.0275	 2.0440	 3.0442	0
303	24	2	1	8	617.9055	35	1	1000	433346.0742	172.6420	 3.0605	 4.0772	 5.0936	 6.0938	0
303	24	3	1	8	496.6343	35	1	1000	433346.0742	172.6420	 6.1102	 7.1267	 8.1432	 9.1434	0
303	24	4	1	8	590.3457	32	1	1000	433346.0742	172.6420	 9.1598	10.1763	11.1928	12.1930	0
303	24	5	1	8	444.9531	35	1	1000	433346.0742	172.6420	12.2095	13.2261	14.2425	15.2428	0
303	24	6	1	8	466.9207	35	1	1000	433346.0742	172.6420	15.2592	16.2757	17.2922	18.2924	0
303	24	7	1	8	842.0518	32	1	4000	433346.0742	172.6420	18.3088	22.3249	23.3416	24.3418	0
303	24	8	1	8	640.6607	35	1	4000	433346.0742	172.6420	24.3581	28.3742	29.3908	30.3910	0
303	24	9	1	8	447.6797	35	1	4000	433346.0742	172.6420	30.4074	34.4236	35.4401	36.4403	0
303	24	10	1	8	477.7786	32	1	4000	433346.0742	172.6420	36.4566	40.4729	41.4892	42.4893	0
303	24	11	1	8	468.6154	32	1	4000	433346.0742	172.6420	42.5060	46.5222	47.5388	48.5390	0
303	24	12	1	8	467.7057	32	1	4000	433346.0742	172.6420	48.5553	52.5714	53.5881	54.5882	0
303	24	13	1	8	585.8321	32	1	4000	433346.0742	172.6420	54.6045	58.6208	59.6373	60.6375	0
303	24	14	1	8	999.8802	1	0	4000	433346.0742	172.6420	60.6538	64.6701	65.6866	66.6872	0
303	24	15	1	8	894.4215	35	1	4000	433346.0742	172.6420	67.7197	71.7358	72.7524	73.7526	0
303	24	16	1	8	589.0901	32	1	4000	433346.0742	172.6420	73.7691	77.7852	78.8018	79.8020	0
303	24	17	1	8	500.5557	35	1	4000	433346.0742	172.6420	79.8183	83.8346	84.8511	85.8513	0
303	24	18	1	8	514.8146	32	1	4000	433346.0742	172.6420	85.8676	89.8839	90.9004	91.9006	0
303	24	19	1	8	833.2337	32	1	4000	433346.0742	172.6420	91.9170	95.9332	96.9497	97.9499	0
303	24	20	1	8	416.4463	35	1	4000	433346.0742	172.6420	97.9662	101.9825	102.9990	103.9992	0
303	24	21	1	8	662.5748	32	1	4000	433346.0742	172.6420	104.0156	108.0317	109.0483	110.0485	0
303	24	22	1	8	1000.0337	1	0	4000	433346.0742	172.6420	110.0648	114.0810	115.0976	116.0984	0
303	24	23	1	8	436.4654	35	1	4000	433346.0742	172.6420	117.1307	121.1469	122.1635	123.1637	0
303	24	24	1	8	999.7522	1	0	4000	433346.0742	172.6420	123.1800	127.1962	128.2128	129.2132	0
303	24	25	1	8	552.9890	35	1	4000	433346.0742	172.6420	130.2459	134.2621	135.2785	136.2787	0
303	24	26	1	8	479.2270	35	1	4000	433346.0742	172.6420	136.2952	140.3114	141.3279	142.3281	0
303	24	27	1	8	501.7529	32	1	4000	433346.0742	172.6420	142.3444	146.3606	147.3772	148.3774	0
303	24	28	1	8	565.4962	32	1	4000	433346.0742	172.6420	148.3937	152.4100	153.4266	154.4267	0
303	24	29	1	8	651.3858	32	1	4000	433346.0742	172.6420	154.4431	158.4593	159.4758	160.4760	0
303	24	30	1	8	999.5719	1	0	4000	433346.0742	172.6420	160.4924	164.5086	165.5251	166.5253	0
