SUBID	BLOCK	TRIAL	REP	RUNID	RT	RESP	ACC	RSIJIT	EV_START	EV_BLOCK	EV_TRIAL	EV_RETRIEVAL	EV_PROBE	EV_RESP	EV_BLEND
201	1	1	1	1	495.8005	35	1	1000	1101815.67	0.0032	0.0359	1.0532	2.0709	3.0735	0
201	1	2	1	1	579.6084	35	1	1000	1101815.67	0.0032	3.1049	4.1227	5.1405	6.1406	0
201	1	3	1	1	606.0364	35	1	1000	1101815.67	0.0032	6.1583	7.1761	8.1939	9.194	0
201	1	4	1	1	471.7911	35	1	1000	1101815.67	0.0032	9.2116	10.2294	11.2472	12.2473	0
201	1	5	1	1	562.2819	32	1	1000	1101815.67	0.0032	12.2817	13.2995	14.3172	15.3174	0
201	1	6	1	1	468.4862	35	1	1000	1101815.67	0.0032	15.3517	16.3695	17.3873	18.3875	0
201	1	7	1	1	523.5454	35	1	4000	1101815.67	0.0032	18.4051	22.4262	23.444	24.4442	0
201	1	8	1	1	466.9432	32	1	4000	1101815.67	0.0032	24.4618	28.4829	29.5007	30.5009	0
201	1	9	1	1	410.045	35	1	4000	1101815.67	0.0032	30.5352	34.5563	35.574	36.5742	0
201	1	10	1	1	408.4878	35	1	4000	1101815.67	0.0032	36.5919	40.613	41.6307	42.6309	0
201	1	11	1	1	544.5928	32	1	4000	1101815.67	0.0032	42.6652	46.6696	47.6874	48.6875	0
201	1	12	1	1	383.9159	35	1	4000	1101815.67	0.0032	48.7053	52.7263	53.7441	54.7442	0
201	1	13	1	1	542.1699	32	1	4000	1101815.67	0.0032	54.7619	58.783	59.8008	60.8009	0
201	1	14	1	1	518.2196	35	1	4000	1101815.67	0.0032	60.8353	64.8563	65.8742	66.8743	0
201	1	15	1	1	541.4126	32	1	4000	1101815.67	0.0032	66.8919	70.913	71.9308	72.931	0
201	1	16	1	1	508.4937	35	1	4000	1101815.67	0.0032	72.9653	76.9697	77.9875	78.9876	0
201	1	17	1	1	523.4954	32	1	4000	1101815.67	0.0032	79.0053	83.0264	84.0442	85.0443	0
201	1	18	1	1	434.8211	32	1	4000	1101815.67	0.0032	85.062	89.0831	90.1009	91.1011	0
201	1	19	1	1	512.9212	32	1	4000	1101815.67	0.0032	91.1354	95.1564	96.1742	97.1744	0
201	1	20	1	1	416.0424	35	1	4000	1101815.67	0.0032	97.192	101.2131	102.2309	103.2311	0
201	1	21	1	1	527.6321	35	1	4000	1101815.67	0.0032	103.2653	107.2696	108.2876	109.2878	0
201	1	22	1	1	503.1109	35	1	4000	1101815.67	0.0032	109.3054	113.3265	114.3442	115.3444	0
201	1	23	1	1	518.3331	32	1	4000	1101815.67	0.0032	115.3621	119.3999	120.4177	121.4178	0
201	1	24	1	1	404.3008	35	1	4000	1101815.67	0.0032	121.4521	125.4732	126.491	127.4912	0
201	1	25	1	1	363.0742	35	1	4000	1101815.67	0.0032	127.5088	131.5299	132.5477	133.5479	0
201	1	26	1	1	418.8647	35	1	4000	1101815.67	0.0032	133.5822	137.6033	138.6211	139.6212	0
201	1	27	1	1	417.3922	35	1	4000	1101815.67	0.0032	139.6389	143.66	144.6777	145.6779	0
201	1	28	1	1	400.4968	35	1	4000	1101815.67	0.0032	145.6954	149.7166	150.7511	151.7513	0
201	1	29	1	1	471.7794	32	0	4000	1101815.67	0.0032	151.7856	155.8067	156.8245	157.8246	0
201	1	30	1	1	404.6275	35	1	4000	1101815.67	0.0032	158.8601	162.8812	163.899	164.8991	0
201	1	1	1	1	406.1584	35	1	1000	1101815.67	0.0032	0.0211	1.0384	2.0562	3.0563	164.9031
201	1	2	1	1	553.1126	35	1	1000	1101815.67	0.0032	3.074	4.0918	5.1096	6.1097	164.9031
201	1	3	1	1	633.4408	35	1	1000	1101815.67	0.0032	6.1441	7.1785	8.213	9.2131	164.9031
201	1	4	1	1	659.2906	35	1	1000	1101815.67	0.0032	9.2308	10.2486	11.2664	12.2665	164.9031
201	1	5	1	1	599.2665	32	1	1000	1101815.67	0.0032	12.2842	13.302	14.3197	15.3199	164.9031
201	1	6	1	1	665.1495	35	1	1000	1101815.67	0.0032	15.3375	16.3553	17.3731	18.3733	164.9031
201	1	7	1	1	471.285	35	1	4000	1101815.67	0.0032	18.3909	22.412	23.4465	24.4466	164.9031
201	1	8	1	1	654.8334	32	1	4000	1101815.67	0.0032	24.4641	28.4854	29.5032	30.5033	164.9031
201	1	9	1	1	494.2996	35	1	4000	1101815.67	0.0032	30.5209	34.542	35.5598	36.5599	164.9031
201	1	10	1	1	373.6547	35	1	4000	1101815.67	0.0032	36.5943	40.6154	41.6332	42.6333	164.9031
201	1	11	1	1	556.8299	32	1	4000	1101815.67	0.0032	42.651	46.672	47.6899	48.6901	164.9031
201	1	12	1	1	459.8091	35	1	4000	1101815.67	0.0032	48.7076	52.7288	53.7633	54.7634	164.9031
201	1	13	1	1	426.708	32	1	4000	1101815.67	0.0032	54.781	58.8021	59.82	60.8201	164.9031
201	1	14	1	1	393.3718	35	1	4000	1101815.67	0.0032	60.8377	64.8588	65.8766	66.8768	164.9031
201	1	15	1	1	544.0044	32	1	4000	1101815.67	0.0032	66.9111	70.9322	71.95	72.9501	164.9031
201	1	16	1	1	424.3126	35	1	4000	1101815.67	0.0032	72.9678	76.9889	78.0067	79.0068	164.9031
201	1	17	1	1	623.2709	32	1	4000	1101815.67	0.0032	79.0245	83.0456	84.0633	85.0634	164.9031
201	1	18	1	1	477.7504	32	1	4000	1101815.67	0.0032	85.0811	89.1022	90.12	91.1202	164.9031
201	1	19	1	1	469.3678	32	1	4000	1101815.67	0.0032	91.1378	95.1589	96.1767	97.1769	164.9031
201	1	20	1	1	500.5656	35	1	4000	1101815.67	0.0032	97.2112	101.2323	102.2501	103.2502	164.9031
201	1	21	1	1	659.5105	35	1	4000	1101815.67	0.0032	103.2679	107.289	108.3068	109.3069	164.9031
201	1	22	1	1	443.1993	35	1	4000	1101815.67	0.0032	109.3246	113.3457	114.3635	115.3636	164.9031
201	1	23	1	1	553.8107	32	1	4000	1101815.67	0.0032	115.3812	119.4023	120.4201	121.4203	164.9031
201	1	24	1	1	417.5246	35	1	4000	1101815.67	0.0032	121.4379	125.459	126.4769	127.477	164.9031
201	1	25	1	1	432.8019	35	1	4000	1101815.67	0.0032	127.5113	131.5324	132.5502	133.5503	164.9031
201	1	26	1	1	432.0733	35	1	4000	1101815.67	0.0032	133.568	137.589	138.6069	139.607	164.9031
201	1	27	1	1	519.6307	35	1	4000	1101815.67	0.0032	139.6247	143.6458	144.6635	145.6636	164.9031
201	1	28	1	1	638.4017	35	1	4000	1101815.67	0.0032	145.6813	149.7024	150.7202	151.7204	164.9031
201	1	29	1	1	437.1791	35	1	4000	1101815.67	0.0032	151.738	155.7591	156.7769	157.7771	164.9031
201	1	30	1	1	437.1051	35	1	4000	1101815.67	0.0032	157.8114	161.8325	162.8501	163.8503	164.9031
201	1	1	1	1	532.4439	35	1	1000	1101815.67	0.0032	0.0159	1.0335	2.0513	3.0515	163.8539
201	1	2	1	1	622.6788	35	1	1000	1101815.67	0.0032	3.0691	4.0869	5.1047	6.1048	163.8539
201	1	3	1	1	464.0007	35	1	1000	1101815.67	0.0032	6.1392	7.1736	8.1914	9.1916	163.8539
201	1	4	1	1	402.8839	35	1	1000	1101815.67	0.0032	9.2092	10.2269	11.2448	12.2449	163.8539
201	1	5	1	1	621.2232	32	1	1000	1101815.67	0.0032	12.2626	13.2804	14.2982	15.2983	163.8539
201	1	6	1	1	464.3609	35	1	1000	1101815.67	0.0032	15.3159	16.3337	17.3515	18.3516	163.8539
201	1	7	1	1	469.7485	35	1	4000	1101815.67	0.0032	18.386	22.4071	23.4249	24.425	163.8539
201	1	8	1	1	501.7353	32	1	4000	1101815.67	0.0032	24.4427	28.4638	29.4816	30.4817	163.8539
201	1	9	1	1	429.5467	35	1	4000	1101815.67	0.0032	30.4994	34.5205	35.5383	36.5384	163.8539
201	1	10	1	1	603.2826	35	1	4000	1101815.67	0.0032	36.5727	40.5938	41.6116	42.6118	163.8539
201	1	11	1	1	546.7128	32	1	4000	1101815.67	0.0032	42.6294	46.6505	47.6683	48.6685	163.8539
201	1	12	1	1	386.0413	35	1	4000	1101815.67	0.0032	48.6861	52.7072	53.725	54.7251	163.8539
201	1	13	1	1	522.3809	32	1	4000	1101815.67	0.0032	54.7428	58.7639	59.7817	60.7818	163.8539
201	1	14	1	1	425.1489	35	1	4000	1101815.67	0.0032	60.7995	64.8206	65.8383	66.8385	163.8539
201	1	15	1	1	559.6723	32	1	4000	1101815.67	0.0032	66.8728	70.8939	71.9117	72.9119	163.8539
201	1	16	1	1	495.7945	35	1	4000	1101815.67	0.0032	72.9295	76.9506	77.9683	78.9685	163.8539
201	1	17	1	1	541.786	32	1	4000	1101815.67	0.0032	79.0029	83.024	84.0418	85.0419	163.8539
201	1	18	1	1	525.1344	32	1	4000	1101815.67	0.0032	85.0595	89.0805	90.0984	91.0986	163.8539
201	1	19	1	1	516.4295	32	1	4000	1101815.67	0.0032	91.1162	95.1374	96.1551	97.1553	163.8539
201	1	20	1	1	435.4209	35	1	4000	1101815.67	0.0032	97.1896	101.2107	102.2285	103.2286	163.8539
201	1	21	1	1	394.3878	35	1	4000	1101815.67	0.0032	103.2463	107.2674	108.2851	109.2853	163.8539
201	1	22	1	1	568.911	35	1	4000	1101815.67	0.0032	109.303	113.324	114.3418	115.342	163.8539
201	1	23	1	1	489.4536	32	1	4000	1101815.67	0.0032	115.3596	119.3808	120.3985	121.3987	163.8539
201	1	24	1	1	591.9234	35	1	4000	1101815.67	0.0032	121.4163	125.4374	126.4552	127.4554	163.8539
201	1	25	1	1	366.936	35	1	4000	1101815.67	0.0032	127.4897	131.5107	132.5286	133.5288	163.8539
201	1	26	1	1	381.4142	35	1	4000	1101815.67	0.0032	133.5464	137.5675	138.5852	139.5854	163.8539
201	1	27	1	1	469.5676	35	1	4000	1101815.67	0.0032	139.6198	143.624	144.6419	145.6421	163.8539
201	1	28	1	1	437.0892	35	1	4000	1101815.67	0.0032	145.6597	149.6808	150.6986	151.6988	163.8539
201	1	29	1	1	420.0655	35	1	4000	1101815.67	0.0032	151.7164	155.7375	156.7553	157.7554	163.8539
201	1	30	1	1	427.3751	35	1	4000	1101815.67	0.0032	157.7898	161.8109	162.8287	163.8288	163.8539
201	1	1	1	1	363.9184	35	1	1000	1101815.67	0.0032	0.0247	1.0422	2.0599	3.0601	163.8324
201	1	2	1	1	355.8223	35	1	1000	1101815.67	0.0032	3.0944	4.1122	5.1467	6.1468	163.8324
201	1	3	1	1	431.0144	35	1	1000	1101815.67	0.0032	6.1645	7.1823	8.2	9.2002	163.8324
201	1	4	1	1	353.9316	35	1	1000	1101815.67	0.0032	9.2178	10.2356	11.2533	12.2535	163.8324
201	1	5	1	1	580.3153	32	1	1000	1101815.67	0.0032	12.2712	13.2889	14.3068	15.3069	163.8324
201	1	6	1	1	431.2993	35	1	1000	1101815.67	0.0032	15.3246	16.3424	17.3602	18.3603	163.8324
201	1	7	1	1	630.4095	35	1	4000	1101815.67	0.0032	18.3946	22.4157	23.4335	24.4337	163.8324
201	1	8	1	1	596.4055	32	1	4000	1101815.67	0.0032	24.4513	28.4724	29.4902	30.4903	163.8324
201	1	9	1	1	515.7485	35	1	4000	1101815.67	0.0032	30.508	34.5291	35.5635	36.5637	163.8324
201	1	10	1	1	434.7392	35	1	4000	1101815.67	0.0032	36.5814	40.6025	41.6203	42.6204	163.8324
201	1	11	1	1	475.0038	32	1	4000	1101815.67	0.0032	42.6381	46.6592	47.6769	48.6771	163.8324
201	1	12	1	1	402.189	35	1	4000	1101815.67	0.0032	48.7114	52.7158	53.7335	54.7336	163.8324
201	1	13	1	1	448.4722	32	1	4000	1101815.67	0.0032	54.7514	58.7725	59.7902	60.7903	163.8324
201	1	14	1	1	407.06	35	1	4000	1101815.67	0.0032	60.808	64.8292	65.8637	66.8638	163.8324
201	1	15	1	1	447.5004	32	1	4000	1101815.67	0.0032	66.8815	70.9026	71.9204	72.9205	163.8324
201	1	16	1	1	405.8353	35	1	4000	1101815.67	0.0032	72.9382	76.9592	77.9769	78.977	163.8324
201	1	17	1	1	485.5185	32	1	4000	1101815.67	0.0032	79.0115	83.0326	84.0504	85.0506	163.8324
201	1	18	1	1	588.97	32	1	4000	1101815.67	0.0032	85.0682	89.0893	90.1071	91.1072	163.8324
201	1	19	1	1	1000.4943	1	0	4000	1101815.67	0.0032	91.1249	95.146	96.1804	97.1817	163.8324
201	1	20	1	1	999.7467	1	0	4000	1101815.67	0.0032	98.216	102.2371	103.2549	104.2555	163.8324
201	1	21	1	1	999.697	1	0	4000	1101815.67	0.0032	105.2905	109.3116	110.3461	111.3466	163.8324
201	1	22	1	1	999.5654	1	0	4000	1101815.67	0.0032	112.3983	116.4194	117.4372	118.4376	163.8324
201	1	23	1	1	999.6815	1	0	4000	1101815.67	0.0032	119.4728	123.4939	124.5284	125.5289	163.8324
201	1	24	1	1	571.1797	32	0	4000	1101815.67	0.0032	126.5973	130.6184	131.6362	132.6364	163.8324
201	1	25	1	1	448.3777	35	1	4000	1101815.67	0.0032	133.6718	137.6929	138.7107	139.7108	163.8324
201	1	26	1	1	439.4107	35	1	4000	1101815.67	0.0032	139.7452	143.7663	144.7841	145.7842	163.8324
201	1	27	1	1	518.1828	35	1	4000	1101815.67	0.0032	145.8019	149.8229	150.8408	151.8409	163.8324
201	1	28	1	1	397.5609	35	1	4000	1101815.67	0.0032	151.8585	155.8797	156.9141	157.9143	163.8324
201	1	29	1	1	445.0522	35	1	4000	1101815.67	0.0032	157.9319	161.953	162.9708	163.9709	163.8324
201	1	30	1	1	372.2468	35	1	4000	1101815.67	0.0032	163.9886	168.0097	169.0274	170.0276	163.8324
201	4	1	1	2	458.6985	32	1	1000	1103432.327	0.003	0.0231	1.057	2.0913	3.0939	0
201	4	2	1	2	423.6963	35	1	1000	1103432.327	0.003	3.1087	4.1264	5.1442	6.1444	0
201	4	3	1	2	450.6604	35	1	1000	1103432.327	0.003	6.1621	7.1799	8.1977	9.1978	0
201	4	4	1	2	493.0463	35	1	1000	1103432.327	0.003	9.2154	10.2332	11.251	12.2511	0
201	4	5	1	2	399.4443	35	1	1000	1103432.327	0.003	12.2688	13.2866	14.3044	15.3045	0
201	4	6	1	2	480.1618	35	1	1000	1103432.327	0.003	15.3389	16.3733	17.391	18.3912	0
201	4	7	1	2	560.392	32	1	4000	1103432.327	0.003	18.4089	22.43	23.4478	24.448	0
201	4	8	1	2	358.3198	35	1	4000	1103432.327	0.003	24.4656	28.4867	29.5045	30.5046	0
201	4	9	1	2	462.2641	32	1	4000	1103432.327	0.003	30.5389	34.5601	35.5779	36.578	0
201	4	10	1	2	412.6345	32	1	4000	1103432.327	0.003	36.5956	40.6167	41.6345	42.6347	0
201	4	11	1	2	436.5324	35	1	4000	1103432.327	0.003	42.6523	46.6734	47.6912	48.6914	0
201	4	12	1	2	410.9687	35	1	4000	1103432.327	0.003	48.709	52.7301	53.7479	54.7481	0
201	4	13	1	2	603.5877	32	1	4000	1103432.327	0.003	54.7657	58.7868	59.8046	60.8047	0
201	4	14	1	2	378.2628	35	1	4000	1103432.327	0.003	60.8391	64.8602	65.8779	66.878	0
201	4	15	1	2	408.9972	32	1	4000	1103432.327	0.003	66.8958	70.9168	71.9346	72.9348	0
201	4	16	1	2	519.5765	32	1	4000	1103432.327	0.003	72.9524	76.9734	77.9913	78.9915	0
201	4	17	1	2	462.6685	32	1	4000	1103432.327	0.003	79.0091	83.0301	84.048	85.0482	0
201	4	18	1	2	455.6249	32	1	4000	1103432.327	0.003	85.0658	89.0869	90.1047	91.1048	0
201	4	19	1	2	380.6615	35	1	4000	1103432.327	0.003	91.1392	95.1603	96.178	97.1782	0
201	4	20	1	2	428.8433	32	1	4000	1103432.327	0.003	97.1959	101.2169	102.2347	103.2349	0
201	4	21	1	2	419.9867	35	1	4000	1103432.327	0.003	103.2525	107.2736	108.2914	109.2916	0
201	4	22	1	2	411.1161	32	1	4000	1103432.327	0.003	109.3092	113.3303	114.3481	115.3483	0
201	4	23	1	2	418.4696	35	1	4000	1103432.327	0.003	115.3659	119.387	120.4048	121.405	0
201	4	24	1	2	425.862	32	1	4000	1103432.327	0.003	121.4393	125.4604	126.4781	127.4783	0
201	4	25	1	2	496.9416	32	1	4000	1103432.327	0.003	127.4959	131.517	132.5348	133.535	0
201	4	26	1	2	479.4126	32	1	4000	1103432.327	0.003	133.5526	137.5737	138.5915	139.5917	0
201	4	27	1	2	454.5951	35	1	4000	1103432.327	0.003	139.6093	143.6304	144.6481	145.6483	0
201	4	28	1	2	374.0779	32	1	4000	1103432.327	0.003	145.6659	149.6871	150.7049	151.705	0
201	4	29	1	2	437.8438	35	1	4000	1103432.327	0.003	151.7394	155.7604	156.7781	157.7782	0
201	4	30	1	2	395.9171	35	1	4000	1103432.327	0.003	157.796	161.8171	162.8349	163.8351	0
201	4	1	1	2	556.723	32	1	1000	1103432.327	0.003	0.0209	1.0553	2.0898	3.09	163.839
201	4	2	1	2	431.0797	35	1	1000	1103432.327	0.003	3.1075	4.1254	5.1431	6.1433	163.839
201	4	3	1	2	433.8593	35	1	1000	1103432.327	0.003	6.161	7.1787	8.1965	9.1967	163.839
201	4	4	1	2	476.7147	32	0	1000	1103432.327	0.003	9.2143	10.2321	11.2499	12.25	163.839
201	4	5	1	2	619.8002	35	1	1000	1103432.327	0.003	13.3022	14.3367	15.3711	16.3713	163.839
201	4	6	1	2	436.8923	35	1	1000	1103432.327	0.003	16.4056	17.4234	18.4412	19.4413	163.839
201	4	7	1	2	532.9191	32	1	4000	1103432.327	0.003	19.459	23.4801	24.4978	25.498	163.839
201	4	8	1	2	427.6282	35	1	4000	1103432.327	0.003	25.5156	29.5367	30.5545	31.5547	163.839
201	4	9	1	2	474.4189	32	1	4000	1103432.327	0.003	31.5891	35.6101	36.6279	37.6281	163.839
201	4	10	1	2	402.4659	32	1	4000	1103432.327	0.003	37.6457	41.6668	42.6846	43.6847	163.839
201	4	11	1	2	505.0219	35	1	4000	1103432.327	0.003	43.7191	47.7234	48.7413	49.7414	163.839
201	4	12	1	2	400.1648	35	1	4000	1103432.327	0.003	49.7591	53.7802	54.798	55.7981	163.839
201	4	13	1	2	455.3478	32	1	4000	1103432.327	0.003	55.8157	59.8368	60.8546	61.8548	163.839
201	4	14	1	2	398.6567	35	1	4000	1103432.327	0.003	61.8891	65.9102	66.928	67.9281	163.839
201	4	15	1	2	501.4064	32	1	4000	1103432.327	0.003	67.9458	71.9669	72.9846	73.9848	163.839
201	4	16	1	2	571.938	32	1	4000	1103432.327	0.003	74.0192	78.0403	79.0581	80.0582	163.839
201	4	17	1	2	475.6273	32	1	4000	1103432.327	0.003	80.0758	84.0969	85.1147	86.1149	163.839
201	4	18	1	2	419.5917	32	1	4000	1103432.327	0.003	86.1325	90.1536	91.1714	92.1716	163.839
201	4	19	1	2	433.7104	35	1	4000	1103432.327	0.003	92.2059	96.227	97.2448	98.2449	163.839
201	4	20	1	2	481.5344	32	1	4000	1103432.327	0.003	98.2626	102.2837	103.3015	104.3016	163.839
201	4	21	1	2	464.3211	35	1	4000	1103432.327	0.003	104.3359	108.3402	109.3582	110.3583	163.839
201	4	22	1	2	456.0398	32	1	4000	1103432.327	0.003	110.3759	114.397	115.4148	116.415	163.839
201	4	23	1	2	398.1263	35	1	4000	1103432.327	0.003	116.4326	120.4537	121.4882	122.4884	163.839
201	4	24	1	2	436.4662	32	1	4000	1103432.327	0.003	122.5226	126.5438	127.5616	128.5617	163.839
201	4	25	1	2	524.6688	32	1	4000	1103432.327	0.003	128.5794	132.6004	133.6183	134.6184	163.839
201	4	26	1	2	482.8978	32	1	4000	1103432.327	0.003	134.6527	138.6738	139.6916	140.6917	163.839
201	4	27	1	2	425.4856	35	1	4000	1103432.327	0.003	140.7094	144.7305	145.7483	146.7484	163.839
201	4	28	1	2	465.2799	32	1	4000	1103432.327	0.003	146.7661	150.7872	151.8049	152.8051	163.839
201	4	29	1	2	415.332	35	1	4000	1103432.327	0.003	152.8395	156.8605	157.8783	158.8784	163.839
201	4	30	1	2	414.6697	35	1	4000	1103432.327	0.003	158.8961	162.9172	163.935	164.9352	163.839
201	4	1	1	2	611.1033	32	1	1000	1103432.327	0.003	0.0257	1.0434	2.0612	3.0614	164.9387
201	4	2	1	2	788.8831	35	1	1000	1103432.327	0.003	3.0791	4.0968	5.1146	6.1148	164.9387
201	4	3	1	2	360.196	35	1	1000	1103432.327	0.003	6.1324	7.1502	8.1679	9.1681	164.9387
201	4	4	1	2	393.6029	35	1	1000	1103432.327	0.003	9.1857	10.2036	11.2213	12.2215	164.9387
201	4	5	1	2	428.1085	35	1	1000	1103432.327	0.003	12.2558	13.2736	14.2914	15.2915	164.9387
201	4	6	1	2	501.6528	35	1	1000	1103432.327	0.003	15.3259	16.3437	17.3615	18.3616	164.9387
201	4	7	1	2	622.4126	32	1	4000	1103432.327	0.003	18.3792	22.4003	23.4181	24.4183	164.9387
201	4	8	1	2	421.0038	35	1	4000	1103432.327	0.003	24.4359	28.457	29.4748	30.475	164.9387
201	4	9	1	2	458.7439	32	1	4000	1103432.327	0.003	30.5093	34.5304	35.5482	36.5484	164.9387
201	4	10	1	2	483.1101	32	1	4000	1103432.327	0.003	36.566	40.5871	41.6049	42.605	164.9387
201	4	11	1	2	426.2031	35	1	4000	1103432.327	0.003	42.6393	46.6437	47.6615	48.6617	164.9387
201	4	12	1	2	370.0365	35	1	4000	1103432.327	0.003	48.6793	52.7005	53.7182	54.7184	164.9387
201	4	13	1	2	465.3995	32	1	4000	1103432.327	0.003	54.736	58.7571	59.7749	60.775	164.9387
201	4	14	1	2	375.4587	35	1	4000	1103432.327	0.003	60.8094	64.8305	65.8483	66.8484	164.9387
201	4	15	1	2	479.3444	32	1	4000	1103432.327	0.003	66.8659	70.8872	71.905	72.9051	164.9387
201	4	16	1	2	509.8089	32	1	4000	1103432.327	0.003	72.9394	76.9437	77.9617	78.9618	164.9387
201	4	17	1	2	556.6808	32	1	4000	1103432.327	0.003	78.9793	83.0005	84.0183	85.0185	164.9387
201	4	18	1	2	508.8564	32	1	4000	1103432.327	0.003	85.0361	89.0572	90.0917	91.0918	164.9387
201	4	19	1	2	418.4194	35	1	4000	1103432.327	0.003	91.1262	95.1473	96.1651	97.1652	164.9387
201	4	20	1	2	450.0411	32	1	4000	1103432.327	0.003	97.1829	101.204	102.2217	103.2219	164.9387
201	4	21	1	2	489.7555	35	1	4000	1103432.327	0.003	103.2562	107.2605	108.2784	109.2786	164.9387
201	4	22	1	2	392.5809	32	1	4000	1103432.327	0.003	109.2962	113.3173	114.3351	115.3353	164.9387
201	4	23	1	2	375.6958	35	1	4000	1103432.327	0.003	115.3529	119.3739	120.3918	121.3919	164.9387
201	4	24	1	2	414.6398	32	1	4000	1103432.327	0.003	121.4263	125.4473	126.4651	127.4653	164.9387
201	4	25	1	2	534.3092	32	1	4000	1103432.327	0.003	127.4829	131.504	132.5218	133.522	164.9387
201	4	26	1	2	796.0618	32	1	4000	1103432.327	0.003	133.5563	137.5774	138.5952	139.5953	164.9387
201	4	27	1	2	420.2423	35	1	4000	1103432.327	0.003	139.6129	143.6341	144.6517	145.6519	164.9387
201	4	28	1	2	467.2391	32	1	4000	1103432.327	0.003	145.6696	149.6908	150.7253	151.7254	164.9387
201	4	29	1	2	497.4543	35	1	4000	1103432.327	0.003	151.7597	155.7808	156.7986	157.7988	164.9387
201	4	30	1	2	432.6749	35	1	4000	1103432.327	0.003	157.8164	161.8375	162.8554	163.8555	164.9387
201	4	1	1	2	524.7337	32	1	1000	1103432.327	0.003	0.015	1.0327	2.0505	3.0507	163.859
201	7	1	1	3	456.4165	32	1	1000	1104173.165	0.0028	0.024	1.0579	2.0921	3.0947	0
201	7	2	1	3	484.9369	32	1	1000	1104173.165	0.0028	3.1096	4.1273	5.1452	6.1453	0
201	7	3	1	3	512.1235	35	1	1000	1104173.165	0.0028	6.163	7.1808	8.1986	9.1987	0
201	7	4	1	3	402.8924	32	1	1000	1104173.165	0.0028	9.2163	10.2341	11.2519	12.2521	0
201	7	5	1	3	380.4421	35	1	1000	1104173.165	0.0028	12.2697	13.2875	14.3053	15.3055	0
201	7	6	1	3	455.1405	32	1	1000	1104173.165	0.0028	15.3398	16.3742	17.392	18.3922	0
201	7	7	1	3	686.4409	35	1	4000	1104173.165	0.0028	18.4098	22.4309	23.4487	24.4489	0
201	7	8	1	3	356.6169	35	1	4000	1104173.165	0.0028	24.4665	28.4876	29.5054	30.5056	0
201	7	9	1	3	475.6214	32	1	4000	1104173.165	0.0028	30.5399	34.561	35.5788	36.579	0
201	7	10	1	3	427.4668	32	1	4000	1104173.165	0.0028	36.5966	40.6175	41.6355	42.6356	0
201	7	11	1	3	385.7586	35	1	4000	1104173.165	0.0028	42.6532	46.6744	47.6922	48.6923	0
201	7	12	1	3	401.3133	35	1	4000	1104173.165	0.0028	48.7099	52.731	53.7488	54.749	0
201	7	13	1	3	368.7516	35	1	4000	1104173.165	0.0028	54.7666	58.7877	59.8055	60.8056	0
201	7	14	1	3	416.0823	35	1	4000	1104173.165	0.0028	60.84	64.8611	65.8789	66.879	0
201	7	15	1	3	447.3901	32	1	4000	1104173.165	0.0028	66.8967	70.9177	71.9356	72.9357	0
201	7	16	1	3	421.9755	35	1	4000	1104173.165	0.0028	72.9533	76.9744	77.9921	78.9922	0
201	7	17	1	3	397.4007	35	1	4000	1104173.165	0.0028	79.01	83.0311	84.0489	85.049	0
201	7	18	1	3	468.5144	32	1	4000	1104173.165	0.0028	85.0667	89.0878	90.1056	91.1058	0
201	7	19	1	3	435.058	35	1	4000	1104173.165	0.0028	91.1401	95.1612	96.179	97.1791	0
201	7	20	1	3	435.5161	35	1	4000	1104173.165	0.0028	97.1967	101.2178	102.2356	103.2358	0
201	7	21	1	3	449.5815	32	1	4000	1104173.165	0.0028	103.2534	107.2744	108.2922	109.2924	0
201	7	22	1	3	658.1197	32	1	4000	1104173.165	0.0028	109.3101	113.3312	114.349	115.3491	0
201	7	23	1	3	392.1093	35	1	4000	1104173.165	0.0028	115.3667	119.3879	120.4057	121.4059	0
201	7	24	1	3	462.6041	32	1	4000	1104173.165	0.0028	121.4402	125.4613	126.479	127.4792	0
201	7	25	1	3	406.9458	35	1	4000	1104173.165	0.0028	127.4968	131.5179	132.5357	133.5359	0
201	7	26	1	3	470.1478	35	1	4000	1104173.165	0.0028	133.5535	137.5746	138.5924	139.5926	0
201	7	27	1	3	436.8278	32	1	4000	1104173.165	0.0028	139.6102	143.6313	144.6491	145.6493	0
201	7	28	1	3	516.8538	32	1	4000	1104173.165	0.0028	145.6669	149.688	150.7058	151.7059	0
201	7	29	1	3	482.8877	32	1	4000	1104173.165	0.0028	151.7403	155.7614	156.7791	157.7793	0
201	7	30	1	3	377.8305	32	1	4000	1104173.165	0.0028	157.797	161.818	162.8358	163.836	0
201	7	1	1	3	441.9543	32	1	1000	1104173.165	0.0028	0.0174	1.0352	2.053	3.0531	163.84
201	7	2	1	3	756.3479	32	1	1000	1104173.165	0.0028	3.0707	4.0885	5.1063	6.1065	163.84
201	7	3	1	3	598.9846	32	0	1000	1104173.165	0.0028	6.1242	7.1419	8.1597	9.1598	163.84
201	7	4	1	3	774.1767	32	1	1000	1104173.165	0.0028	10.212	11.2464	12.281	13.2811	163.84
201	7	5	1	3	625.6709	35	1	1000	1104173.165	0.0028	13.2986	14.3165	15.3342	16.3343	163.84
201	7	6	1	3	555.5502	32	1	1000	1104173.165	0.0028	16.352	17.3699	18.3876	19.3878	163.84
201	7	7	1	3	699.4814	35	1	4000	1104173.165	0.0028	19.4054	23.4266	24.4443	25.4445	163.84
201	7	8	1	3	530.5675	35	1	4000	1104173.165	0.0028	25.4788	29.4999	30.5177	31.5179	163.84
201	7	9	1	3	440.4765	32	1	4000	1104173.165	0.0028	31.5354	35.5566	36.5744	37.5745	163.84
201	7	10	1	3	591.5737	32	1	4000	1104173.165	0.0028	37.5922	41.6133	42.6477	43.6479	163.84
201	7	11	1	3	391.4033	35	1	4000	1104173.165	0.0028	43.6655	47.6866	48.7044	49.7046	163.84
201	7	12	1	3	375.0556	35	1	4000	1104173.165	0.0028	49.7222	53.7433	54.7611	55.7613	163.84
201	7	13	1	3	661.2597	32	0	4000	1104173.165	0.0028	55.7956	59.8167	60.8345	61.8346	163.84
201	7	14	1	3	514.328	35	1	4000	1104173.165	0.0028	62.8701	66.8911	67.9089	68.9091	163.84
201	7	15	1	3	527.6345	32	1	4000	1104173.165	0.0028	68.9434	72.9812	73.999	74.9992	163.84
201	7	16	1	3	456.2805	35	1	4000	1104173.165	0.0028	75.0168	79.0379	80.0557	81.0559	163.84
201	7	17	1	3	583.5723	35	1	4000	1104173.165	0.0028	81.0735	85.0946	86.1124	87.1125	163.84
201	7	18	1	3	574.0195	32	1	4000	1104173.165	0.0028	87.1468	91.1679	92.1857	93.1858	163.84
201	7	19	1	3	413.6835	35	1	4000	1104173.165	0.0028	93.2035	97.2246	98.2424	99.2426	163.84
201	7	20	1	3	476.7298	35	1	4000	1104173.165	0.0028	99.2602	103.2813	104.2991	105.2992	163.84
201	7	21	1	3	531.9136	32	1	4000	1104173.165	0.0028	105.3169	109.338	110.3557	111.3559	163.84
201	7	22	1	3	514.7624	32	1	4000	1104173.165	0.0028	111.3736	115.3947	116.4125	117.4126	163.84
201	7	23	1	3	433.7822	35	1	4000	1104173.165	0.0028	117.4469	121.468	122.4858	123.486	163.84
201	7	24	1	3	416.5103	32	1	4000	1104173.165	0.0028	123.5036	127.5247	128.5425	129.5427	163.84
201	7	25	1	3	384.0071	35	1	4000	1104173.165	0.0028	129.577	133.5981	134.6159	135.616	163.84
201	7	26	1	3	390.1738	35	1	4000	1104173.165	0.0028	135.6337	139.6548	140.6726	141.6727	163.84
201	7	27	1	3	654.9471	32	1	4000	1104173.165	0.0028	141.6904	145.7115	146.7292	147.7294	163.84
201	7	28	1	3	549.6465	32	1	4000	1104173.165	0.0028	147.7637	151.7848	152.8026	153.8028	163.84
201	7	29	1	3	444.5065	32	1	4000	1104173.165	0.0028	153.8204	157.8415	158.8593	159.8594	163.84
201	7	30	1	3	411.2605	32	1	4000	1104173.165	0.0028	159.8771	163.8982	164.916	165.9161	163.84
201	7	1	1	3	449.808	32	1	1000	1104173.165	0.0028	0.0261	1.0438	2.0616	3.0617	165.9197
201	7	2	1	3	453.501	32	1	1000	1104173.165	0.0028	3.0794	4.0971	5.115	6.1152	165.9197
201	7	3	1	3	517.4043	35	1	1000	1104173.165	0.0028	6.1494	7.1839	8.2184	9.2186	165.9197
201	7	4	1	3	447.7484	32	1	1000	1104173.165	0.0028	9.2362	10.254	11.2718	12.2719	165.9197
201	7	5	1	3	418.4433	35	1	1000	1104173.165	0.0028	12.2895	13.3073	14.3251	15.3253	165.9197
201	7	6	1	3	414.0319	32	1	1000	1104173.165	0.0028	15.343	16.3607	17.3785	18.3786	165.9197
201	7	7	1	3	676.171	35	1	4000	1104173.165	0.0028	18.3963	22.4174	23.4519	24.452	165.9197
201	7	8	1	3	410.8415	35	1	4000	1104173.165	0.0028	24.4697	28.4908	29.5085	30.5087	165.9197
201	7	9	1	3	450.2625	32	1	4000	1104173.165	0.0028	30.5263	34.5475	35.5652	36.5654	165.9197
201	7	10	1	3	432.958	32	1	4000	1104173.165	0.0028	36.5997	40.6208	41.6386	42.6388	165.9197
201	7	11	1	3	377.0575	35	1	4000	1104173.165	0.0028	42.6564	46.6774	47.6953	48.6954	165.9197
201	7	12	1	3	398.9853	35	1	4000	1104173.165	0.0028	48.7131	52.7342	53.7686	54.7688	165.9197
201	7	13	1	3	399.2544	35	1	4000	1104173.165	0.0028	54.7864	58.8076	59.8253	60.8255	165.9197
201	7	14	1	3	437.353	35	1	4000	1104173.165	0.0028	60.843	64.8642	65.882	66.8821	165.9197
201	7	15	1	3	579.8615	32	1	4000	1104173.165	0.0028	66.9165	70.9376	71.9554	72.9555	165.9197
201	7	16	1	3	514.9984	35	1	4000	1104173.165	0.0028	72.9732	76.9942	78.0121	79.0122	165.9197
201	7	17	1	3	475.7319	35	1	4000	1104173.165	0.0028	79.0299	83.051	84.0687	85.0688	165.9197
201	7	18	1	3	459.197	32	1	4000	1104173.165	0.0028	85.0864	89.1076	90.1254	91.1256	165.9197
201	7	19	1	3	456.9106	35	1	4000	1104173.165	0.0028	91.1432	95.1643	96.1821	97.1823	165.9197
201	7	20	1	3	383.8276	35	1	4000	1104173.165	0.0028	97.2166	101.2377	102.2555	103.2557	165.9197
201	7	21	1	3	744.3575	32	1	4000	1104173.165	0.0028	103.2733	107.2944	108.3122	109.3123	165.9197
201	7	22	1	3	671.055	32	1	4000	1104173.165	0.0028	109.33	113.351	114.3689	115.369	165.9197
201	7	23	1	3	446.6814	35	1	4000	1104173.165	0.0028	115.3866	119.4077	120.4255	121.4257	165.9197
201	7	24	1	3	437.8004	32	1	4000	1104173.165	0.0028	121.4433	125.4644	126.4822	127.4823	165.9197
201	7	25	1	3	436.4321	35	1	4000	1104173.165	0.0028	127.5167	131.5378	132.5556	133.5557	165.9197
201	7	26	1	3	467.5055	35	1	4000	1104173.165	0.0028	133.5734	137.5944	138.6123	139.6124	165.9197
201	7	27	1	3	498.8165	32	1	4000	1104173.165	0.0028	139.63	143.6512	144.669	145.6691	165.9197
201	7	28	1	3	594.6612	32	1	4000	1104173.165	0.0028	145.6867	149.7078	150.7256	151.7257	165.9197
201	7	29	1	3	570.2398	32	1	4000	1104173.165	0.0028	151.7434	155.7645	156.7823	157.7824	165.9197
201	7	30	1	3	463.8919	32	1	4000	1104173.165	0.0028	157.8168	161.8377	162.8556	163.8558	165.9197
201	7	1	1	3	469.5968	32	1	1000	1104173.165	0.0028	0.014	1.0317	2.0495	3.0497	163.8595
201	10	1	1	4	560.6412	35	1	1000	1104938.252	0.0029	0.0322	1.0661	2.1004	3.103	0
201	10	2	1	4	404.438	35	1	1000	1104938.252	0.0029	3.1344	4.1522	5.1701	6.1702	0
201	10	3	1	4	471.5348	35	1	1000	1104938.252	0.0029	6.1879	7.2055	8.2235	9.2236	0
201	10	4	1	4	418.8453	35	1	1000	1104938.252	0.0029	9.2412	10.259	11.2768	12.277	0
201	10	5	1	4	516.9057	32	1	1000	1104938.252	0.0029	12.2946	13.3123	14.3302	15.3303	0
201	10	6	1	4	367.1145	35	1	1000	1104938.252	0.0029	15.3647	16.3824	17.4002	18.4004	0
201	10	7	1	4	484.8579	32	1	4000	1104938.252	0.0029	18.4347	22.4558	23.4736	24.4738	0
201	10	8	1	4	429.1272	32	1	4000	1104938.252	0.0029	24.4914	28.5125	29.5303	30.5304	0
201	10	9	1	4	404.0572	35	1	4000	1104938.252	0.0029	30.5648	34.5691	35.5869	36.587	0
201	10	10	1	4	427.5839	32	1	4000	1104938.252	0.0029	36.6048	40.6259	41.6437	42.644	0
201	10	11	1	4	505.7729	35	1	4000	1104938.252	0.0029	42.6615	46.6825	47.717	48.7172	0
201	10	12	1	4	376.7938	35	1	4000	1104938.252	0.0029	48.7515	52.7726	53.7904	54.7906	0
201	10	13	1	4	512.63	32	1	4000	1104938.252	0.0029	54.8082	58.8293	59.8471	60.8472	0
201	10	14	1	4	375.1608	35	1	4000	1104938.252	0.0029	60.8815	64.886	65.9038	66.9039	0
201	10	15	1	4	438.1014	35	1	4000	1104938.252	0.0029	66.9216	70.9426	71.9605	72.9606	0
201	10	16	1	4	477.3265	32	1	4000	1104938.252	0.0029	72.9782	76.9993	78.0171	79.0173	0
201	10	17	1	4	388.1721	35	1	4000	1104938.252	0.0029	79.0516	83.0727	84.0905	85.0907	0
201	10	18	1	4	459.8243	32	1	4000	1104938.252	0.0029	85.1083	89.1294	90.1472	91.1473	0
201	10	19	1	4	459.5123	32	1	4000	1104938.252	0.0029	91.1816	95.186	96.2039	97.204	0
201	10	20	1	4	434.3777	35	1	4000	1104938.252	0.0029	97.2216	101.2427	102.2605	103.2607	0
201	10	21	1	4	433.1669	32	1	4000	1104938.252	0.0029	103.2783	107.2995	108.3339	109.3341	0
201	10	22	1	4	464.4654	35	1	4000	1104938.252	0.0029	109.3684	113.3895	114.4073	115.4074	0
201	10	23	1	4	439.3992	32	1	4000	1104938.252	0.0029	115.4251	119.4462	120.464	121.4641	0
201	10	24	1	4	453.3925	35	1	4000	1104938.252	0.0029	121.4984	125.5195	126.5373	127.5375	0
201	10	25	1	4	709.7745	32	0	4000	1104938.252	0.0029	127.5551	131.5762	132.594	133.5942	0
201	10	26	1	4	513.5014	32	1	4000	1104938.252	0.0029	134.6463	138.6674	139.7018	140.702	0
201	10	27	1	4	640.9842	32	1	4000	1104938.252	0.0029	140.7195	144.7407	145.7585	146.7587	0
201	10	28	1	4	687.6397	32	0	4000	1104938.252	0.0029	146.7763	150.7974	151.8152	152.8154	0
201	10	29	1	4	420.5101	35	1	4000	1104938.252	0.0029	153.8842	157.9052	158.9231	159.9232	0
201	10	30	1	4	435.8261	35	1	4000	1104938.252	0.0029	159.9408	163.9619	164.9797	165.9799	0
201	10	1	1	4	690.3442	35	1	1000	1104938.252	0.0029	0.0168	1.0346	2.0524	3.0525	165.9835
201	10	2	1	4	581.8218	35	1	1000	1104938.252	0.0029	3.0702	4.088	5.1057	6.1059	165.9835
201	10	3	1	4	439.4025	35	1	1000	1104938.252	0.0029	6.1236	7.1414	8.1592	9.1593	165.9835
201	10	4	1	4	378.8607	35	1	1000	1104938.252	0.0029	9.177	10.1947	11.2126	12.2127	165.9835
201	10	5	1	4	523.376	32	1	1000	1104938.252	0.0029	12.247	13.2814	14.316	15.3161	165.9835
201	10	6	1	4	470.2601	35	1	1000	1104938.252	0.0029	15.3337	16.3515	17.3694	18.3695	165.9835
201	10	7	1	4	540.9006	32	1	4000	1104938.252	0.0029	18.3871	22.4082	23.4259	24.4261	165.9835
201	10	8	1	4	500.6028	32	1	4000	1104938.252	0.0029	24.4438	28.4649	29.4994	30.4995	165.9835
201	10	9	1	4	402.7785	35	1	4000	1104938.252	0.0029	30.5172	34.5383	35.5561	36.5562	165.9835
201	10	10	1	4	442.8519	32	1	4000	1104938.252	0.0029	36.5738	40.5949	41.6127	42.6129	165.9835
201	10	11	1	4	464.9713	35	1	4000	1104938.252	0.0029	42.6472	46.6683	47.6861	48.6862	165.9835
201	10	12	1	4	481.1425	35	1	4000	1104938.252	0.0029	48.7039	52.725	53.7428	54.7429	165.9835
201	10	13	1	4	631.5204	32	1	4000	1104938.252	0.0029	54.7606	58.7817	59.7994	60.7996	165.9835
201	10	14	1	4	391.1638	35	1	4000	1104938.252	0.0029	60.8173	64.8384	65.8562	66.8563	165.9835
201	10	15	1	4	398.7073	35	1	4000	1104938.252	0.0029	66.8739	70.8949	71.9128	72.913	165.9835
201	10	16	1	4	549.573	32	1	4000	1104938.252	0.0029	72.9473	76.9684	77.9862	78.9863	165.9835
201	10	17	1	4	523.6756	35	1	4000	1104938.252	0.0029	79.004	83.0251	84.0428	85.043	165.9835
201	10	18	1	4	467.0275	32	1	4000	1104938.252	0.0029	85.0607	89.0818	90.0996	91.0997	165.9835
201	10	19	1	4	530.1646	32	1	4000	1104938.252	0.0029	91.1173	95.1384	96.1562	97.1564	165.9835
201	10	20	1	4	442.7719	35	1	4000	1104938.252	0.0029	97.174	101.1951	102.2129	103.213	165.9835
201	10	21	1	4	481.0751	32	1	4000	1104938.252	0.0029	103.2474	107.2684	108.2863	109.2864	165.9835
201	10	22	1	4	391.5907	35	1	4000	1104938.252	0.0029	109.3041	113.3252	114.343	115.3431	165.9835
201	10	23	1	4	615.4987	32	1	4000	1104938.252	0.0029	115.3608	119.3818	120.3997	121.3998	165.9835
201	10	24	1	4	415.2061	35	1	4000	1104938.252	0.0029	121.4174	125.4385	126.4562	127.4564	165.9835
201	10	25	1	4	389.7784	35	1	4000	1104938.252	0.0029	127.4741	131.4953	132.5129	133.5131	165.9835
201	10	26	1	4	452.7061	32	1	4000	1104938.252	0.0029	133.5476	137.5686	138.5864	139.5865	165.9835
201	10	27	1	4	556.8848	32	1	4000	1104938.252	0.0029	139.6042	143.6253	144.6431	145.6432	165.9835
201	10	28	1	4	475.0625	35	1	4000	1104938.252	0.0029	145.6608	149.682	150.6998	151.6999	165.9835
201	10	29	1	4	538.5561	35	1	4000	1104938.252	0.0029	151.7175	155.7386	156.7565	157.7566	165.9835
201	10	30	1	4	417.964	35	1	4000	1104938.252	0.0029	157.7742	161.7953	162.8131	163.8132	165.9835
201	10	1	1	4	385.4221	35	1	1000	1104938.252	0.0029	0.0109	1.0287	2.0465	3.0467	163.8167
201	10	2	1	4	419.0381	35	1	1000	1104938.252	0.0029	3.0643	4.0821	5.0999	6.1	163.8167
201	10	3	1	4	341.6251	35	1	1000	1104938.252	0.0029	6.1177	7.1354	8.1532	9.1534	163.8167
201	10	4	1	4	513.1532	35	1	1000	1104938.252	0.0029	9.1711	10.1888	11.2066	12.2068	163.8167
201	10	5	1	4	482.6264	32	1	1000	1104938.252	0.0029	12.2411	13.2756	14.2933	15.2935	163.8167
201	10	6	1	4	484.8369	35	1	1000	1104938.252	0.0029	15.3111	16.3289	17.3467	18.3469	163.8167
201	10	7	1	4	999.4895	1	0	4000	1104938.252	0.0029	18.3645	22.3856	23.4034	24.4037	163.8167
201	10	8	1	4	833.8573	32	1	4000	1104938.252	0.0029	25.4557	29.4768	30.4946	31.4947	163.8167
201	10	9	1	4	375.9792	35	1	4000	1104938.252	0.0029	31.5124	35.5335	36.5513	37.5514	163.8167
201	10	10	1	4	495.5062	32	1	4000	1104938.252	0.0029	37.569	41.5901	42.6246	43.6248	163.8167
201	10	11	1	4	414.069	35	1	4000	1104938.252	0.0029	43.6591	47.6802	48.698	49.6981	163.8167
201	10	12	1	4	412.9311	35	1	4000	1104938.252	0.0029	49.7158	53.7369	54.7547	55.7548	163.8167
201	10	13	1	4	444.0927	32	1	4000	1104938.252	0.0029	55.7891	59.8102	60.828	61.8282	163.8167
201	10	14	1	4	395.2958	35	1	4000	1104938.252	0.0029	61.8457	65.8669	66.8847	67.8849	163.8167
201	10	15	1	4	385.0313	35	1	4000	1104938.252	0.0029	67.9025	71.9236	72.9581	73.9582	163.8167
201	10	16	1	4	528.7858	32	1	4000	1104938.252	0.0029	73.9926	78.0137	79.0315	80.0316	163.8167
201	10	17	1	4	351.2672	35	1	4000	1104938.252	0.0029	80.0492	84.0703	85.0881	86.0883	163.8167
201	10	18	1	4	414.6647	32	1	4000	1104938.252	0.0029	86.1226	90.1437	91.1615	92.1617	163.8167
201	10	19	1	4	454.1648	32	1	4000	1104938.252	0.0029	92.1792	96.2004	97.2182	98.2183	163.8167
201	10	20	1	4	468.0156	35	1	4000	1104938.252	0.0029	98.236	102.2569	103.2915	104.2916	163.8167
201	10	21	1	4	427.9155	32	1	4000	1104938.252	0.0029	104.3092	108.3304	109.3482	110.3484	163.8167
201	10	22	1	4	394.3688	35	1	4000	1104938.252	0.0029	110.366	114.3872	115.4049	116.405	163.8167
201	10	23	1	4	497.4012	32	1	4000	1104938.252	0.0029	116.4394	120.4605	121.4783	122.4784	163.8167
201	10	24	1	4	392.9791	35	1	4000	1104938.252	0.0029	122.4961	126.5172	127.535	128.5351	163.8167
201	10	25	1	4	391.1458	35	1	4000	1104938.252	0.0029	128.5528	132.5739	133.6083	134.6084	163.8167
201	10	26	1	4	422.7467	32	1	4000	1104938.252	0.0029	134.6261	138.6472	139.665	140.6651	163.8167
201	10	27	1	4	382.5263	32	1	4000	1104938.252	0.0029	140.6828	144.7039	145.7217	146.7218	163.8167
201	10	28	1	4	733.332	32	0	4000	1104938.252	0.0029	146.7561	150.7773	151.795	152.7952	163.8167
201	10	29	1	4	490.988	35	1	4000	1104938.252	0.0029	153.8306	157.8517	158.8695	159.8697	163.8167
201	10	30	1	4	680.8526	35	1	4000	1104938.252	0.0029	159.8872	163.9086	164.9262	165.9264	163.8167
201	10	1	1	4	471.624	35	1	1000	1104938.252	0.0029	0.0201	1.0375	2.0553	3.0555	165.9301
201	10	2	1	4	338.3861	35	1	1000	1104938.252	0.0029	3.0731	4.0909	5.1087	6.1089	165.9301
201	10	3	1	4	454.0141	35	1	1000	1104938.252	0.0029	6.1265	7.1442	8.1621	9.1622	165.9301
201	10	4	1	4	414.4565	35	1	1000	1104938.252	0.0029	9.1966	10.231	11.2488	12.249	165.9301
201	10	5	1	4	481.909	32	1	1000	1104938.252	0.0029	12.2665	13.2844	14.3022	15.3023	165.9301
201	13	1	1	5	429.5585	35	1	1000	1105784.267	0.0027	0.0283	1.0623	2.0799	3.0825	0
201	13	2	1	5	602.1112	32	1	1000	1105784.267	0.0027	3.114	4.1318	5.1496	6.1497	0
201	13	3	1	5	547.0816	35	1	1000	1105784.267	0.0027	6.184	7.2185	8.2363	9.2365	0
201	13	4	1	5	398.1491	35	1	1000	1105784.267	0.0027	9.2541	10.2719	11.2897	12.2898	0
201	13	5	1	5	360.9001	35	1	1000	1105784.267	0.0027	12.3075	13.3253	14.3431	15.3432	0
201	13	6	1	5	387.003	35	1	1000	1105784.267	0.0027	15.3608	16.3786	17.3964	18.3966	0
201	13	7	1	5	411.2416	35	1	4000	1105784.267	0.0027	18.4142	22.4353	23.4531	24.4533	0
201	13	8	1	5	529.6992	32	1	4000	1105784.267	0.0027	24.4709	28.492	29.5098	30.5099	0
201	13	9	1	5	329.132	35	1	4000	1105784.267	0.0027	30.5276	34.5487	35.5665	36.5666	0
201	13	10	1	5	384.1798	35	1	4000	1105784.267	0.0027	36.6009	40.622	41.6397	42.6398	0
201	13	11	1	5	526.5299	35	1	4000	1105784.267	0.0027	42.6576	46.6787	47.6965	48.6967	0
201	13	12	1	5	404.9391	35	1	4000	1105784.267	0.0027	48.731	52.7521	53.7699	54.77	0
201	13	13	1	5	412.3649	35	1	4000	1105784.267	0.0027	54.7877	58.8088	59.8266	60.8267	0
201	13	14	1	5	388.1636	35	1	4000	1105784.267	0.0027	60.8444	64.8655	65.8832	66.8833	0
201	13	15	1	5	555.5414	32	1	4000	1105784.267	0.0027	66.9177	70.9388	71.9566	72.9568	0
201	13	16	1	5	394.3863	35	1	4000	1105784.267	0.0027	72.9744	76.9955	78.0133	79.0135	0
201	13	17	1	5	490.1328	32	1	4000	1105784.267	0.0027	79.0311	83.0522	84.07	85.0701	0
201	13	18	1	5	424.6846	32	1	4000	1105784.267	0.0027	85.0878	89.1088	90.1267	91.1268	0
201	13	19	1	5	440.4871	35	1	4000	1105784.267	0.0027	91.1444	95.1655	96.1833	97.1835	0
201	13	20	1	5	590.9572	32	1	4000	1105784.267	0.0027	97.2178	101.2389	102.2566	103.2568	0
201	13	21	1	5	510.9828	32	1	4000	1105784.267	0.0027	103.2745	107.2956	108.3134	109.3135	0
201	13	22	1	5	396.5083	35	1	4000	1105784.267	0.0027	109.3479	113.369	114.3868	115.3869	0
201	13	23	1	5	620.2034	35	1	4000	1105784.267	0.0027	115.4045	119.4256	120.4434	121.4435	0
201	13	24	1	5	396.1362	35	1	4000	1105784.267	0.0027	121.4612	125.4823	126.5001	127.5002	0
201	13	25	1	5	538.9233	32	1	4000	1105784.267	0.0027	127.5346	131.5557	132.5735	133.5736	0
201	13	26	1	5	504.7715	32	1	4000	1105784.267	0.0027	133.5913	137.6124	138.6302	139.6303	0
201	13	27	1	5	440.6917	32	1	4000	1105784.267	0.0027	139.6647	143.6857	144.7035	145.7037	0
201	13	28	1	5	374.9994	35	1	4000	1105784.267	0.0027	145.7213	149.7424	150.7602	151.7603	0
201	13	29	1	5	511.0836	32	1	4000	1105784.267	0.0027	151.7779	155.7991	156.8169	157.8171	0
201	13	30	1	5	389.1193	35	1	4000	1105784.267	0.0027	157.8514	161.8725	162.8903	163.8904	0
201	14	1	1	5	617.3563	32	1	1000	1105960.268	0.0012	0.0191	1.0367	2.0547	3.0548	0
201	14	2	1	5	570.2681	35	1	1000	1105960.268	0.0012	3.0891	4.1069	5.1247	6.1248	0
201	14	3	1	5	413.6539	35	1	1000	1105960.268	0.0012	6.1425	7.1603	8.178	9.1782	0
201	14	4	1	5	719.4454	32	0	1000	1105960.268	0.0012	9.1959	10.2137	11.2314	12.2316	0
201	14	5	1	5	679.8451	35	1	1000	1105960.268	0.0012	13.2836	14.3014	15.3192	16.3194	0
201	14	6	1	5	1000.2689	1	0	1000	1105960.268	0.0012	16.3538	17.3882	18.4227	19.4238	0
201	14	7	1	5	662.0567	35	1	4000	1105960.268	0.0012	20.4582	24.4794	25.4972	26.4973	0
201	14	8	1	5	853.6924	35	1	4000	1105960.268	0.0012	26.515	30.536	31.5538	32.5539	0
201	14	9	1	5	652.1322	32	1	4000	1105960.268	0.0012	32.5883	36.6094	37.6272	38.6274	0
201	14	10	1	5	402.6491	35	1	4000	1105960.268	0.0012	38.645	42.6661	43.6839	44.6841	0
201	14	11	1	5	402.9175	35	1	4000	1105960.268	0.0012	44.7017	48.7228	49.7406	50.7408	0
201	14	12	1	5	617.9453	35	1	4000	1105960.268	0.0012	50.7584	54.7795	55.7973	56.7974	0
201	14	13	1	5	473.5253	32	1	4000	1105960.268	0.0012	56.8151	60.8361	61.854	62.8541	0
201	14	14	1	5	607.2	35	1	4000	1105960.268	0.0012	62.8884	66.9095	67.9273	68.9275	0
201	14	15	1	5	599.8185	32	1	4000	1105960.268	0.0012	68.9451	72.9662	73.984	74.9841	0
201	14	16	1	5	582.009	32	1	4000	1105960.268	0.0012	75.0185	79.0396	80.0573	81.0574	0
201	14	17	1	5	372.8766	35	1	4000	1105960.268	0.0012	81.0752	85.0963	86.1141	87.1142	0
201	14	18	1	5	421.0588	32	1	4000	1105960.268	0.0012	87.1319	91.1529	92.1707	93.1709	0
201	14	19	1	5	699.57	32	1	4000	1105960.268	0.0012	93.2052	97.2263	98.2441	99.2442	0
201	14	20	1	5	386.7659	35	1	4000	1105960.268	0.0012	99.2619	103.283	104.3008	105.3009	0
201	14	21	1	5	442.2516	32	1	4000	1105960.268	0.0012	105.3186	109.3397	110.3574	111.3576	0
201	14	22	1	5	409.891	32	1	4000	1105960.268	0.0012	111.3753	115.3964	116.4142	117.4143	0
201	14	23	1	5	384.6323	35	1	4000	1105960.268	0.0012	117.4319	121.453	122.4708	123.471	0
201	14	24	1	5	383.4046	35	1	4000	1105960.268	0.0012	123.5053	127.5264	128.5441	129.5442	0
201	14	25	1	5	438.8355	35	1	4000	1105960.268	0.0012	129.562	133.5831	134.6009	135.601	0
201	14	26	1	5	460.4987	35	1	4000	1105960.268	0.0012	135.6354	139.6565	140.6742	141.6743	0
201	14	27	1	5	427.9036	32	1	4000	1105960.268	0.0012	141.692	145.7131	146.7309	147.731	0
201	14	28	1	5	395.3906	35	1	4000	1105960.268	0.0012	147.7487	151.7698	152.7876	153.7878	0
201	14	29	1	5	395.0171	35	1	4000	1105960.268	0.0012	153.8221	157.8432	158.861	159.8611	0
201	14	30	1	5	418.3368	35	1	4000	1105960.268	0.0012	159.8787	163.8999	164.9177	165.9179	0
201	15	1	1	5	600.9531	32	0	1000	1106146.276	0.0009	0.0176	1.0354	2.0532	3.0533	0
201	15	2	1	5	520.7785	35	1	1000	1106146.276	0.0009	4.1054	5.1232	6.141	7.1411	0
201	15	3	1	5	450.795	32	1	1000	1106146.276	0.0009	7.1755	8.21	9.2278	10.228	0
201	15	4	1	5	492.853	32	1	1000	1106146.276	0.0009	10.2455	11.2633	12.2811	13.2813	0
201	15	5	1	5	495.7912	35	1	1000	1106146.276	0.0009	13.2989	14.3167	15.3345	16.3346	0
201	15	6	1	5	442.6342	32	1	1000	1106146.276	0.0009	16.3523	17.3701	18.3879	19.3881	0
201	15	7	1	5	376.5705	35	1	4000	1106146.276	0.0009	19.4056	23.4267	24.4612	25.4613	0
201	15	8	1	5	455.8145	32	1	4000	1106146.276	0.0009	25.479	29.5001	30.5179	31.518	0
201	15	9	1	5	399.7955	35	1	4000	1106146.276	0.0009	31.5357	35.5568	36.5746	37.5747	0
201	15	10	1	5	414.6332	35	1	4000	1106146.276	0.0009	37.6091	41.6301	42.6479	43.6481	0
201	15	11	1	5	469.7613	35	1	4000	1106146.276	0.0009	43.6657	47.6868	48.7046	49.7047	0
201	15	12	1	5	364.0325	35	1	4000	1106146.276	0.0009	49.7224	53.7435	54.778	55.7782	0
201	15	13	1	5	418.9179	35	1	4000	1106146.276	0.0009	55.7958	59.8168	60.8347	61.8348	0
201	15	14	1	5	370.8553	32	1	4000	1106146.276	0.0009	61.8525	65.8736	66.8914	67.8915	0
201	15	15	1	5	377.0897	35	1	4000	1106146.276	0.0009	67.9258	71.9469	72.9647	73.9648	0
201	15	16	1	5	433.4887	35	1	4000	1106146.276	0.0009	73.9825	78.0036	79.0214	80.0215	0
201	15	17	1	5	526.8479	32	1	4000	1106146.276	0.0009	80.0392	84.0603	85.0948	86.0949	0
201	15	18	1	5	390.1702	32	1	4000	1106146.276	0.0009	86.1126	90.1337	91.1514	92.1516	0
201	15	19	1	5	390.7786	35	1	4000	1106146.276	0.0009	92.1693	96.1903	97.208	98.2082	0
201	15	20	1	5	477.6173	32	1	4000	1106146.276	0.0009	98.2426	102.2637	103.2815	104.2816	0
201	15	21	1	5	515.9375	32	1	4000	1106146.276	0.0009	104.2993	108.3204	109.3381	110.3383	0
201	15	22	1	5	458.8185	32	1	4000	1106146.276	0.0009	110.356	114.3771	115.4115	116.4117	0
201	15	23	1	5	346.6152	35	1	4000	1106146.276	0.0009	116.4293	120.4504	121.4683	122.4684	0
201	15	24	1	5	369.1338	35	1	4000	1106146.276	0.0009	122.486	126.5071	127.5249	128.525	0
201	15	25	1	5	496.7689	32	1	4000	1106146.276	0.0009	128.5594	132.5805	133.5982	134.5983	0
201	15	26	1	5	424.1181	32	1	4000	1106146.276	0.0009	134.6161	138.6372	139.655	140.6551	0
201	15	27	1	5	469.9489	32	1	4000	1106146.276	0.0009	140.6728	144.6939	145.7284	146.7285	0
201	15	28	1	5	548.6441	35	1	4000	1106146.276	0.0009	146.7461	150.7672	151.785	152.7852	0
201	15	29	1	5	357.1916	35	1	4000	1106146.276	0.0009	152.8028	156.8239	157.8417	158.8418	0
201	15	30	1	5	386.8771	35	1	4000	1106146.276	0.0009	158.8762	162.8973	163.915	164.9151	0
201	16	1	1	6	492.4932	32	1	1000	1106487.795	0.0036	0.022	1.0394	2.057	3.0596	0
201	16	2	1	6	408.8541	32	1	1000	1106487.795	0.0036	3.091	4.1088	5.1266	6.1268	0
201	16	3	1	6	387.0686	35	1	1000	1106487.795	0.0036	6.1444	7.1622	8.18	9.1801	0
201	16	4	1	6	382.1376	32	1	1000	1106487.795	0.0036	9.2144	10.2322	11.25	12.2502	0
201	16	5	1	6	375.3206	35	1	1000	1106487.795	0.0036	12.2845	13.3189	14.3367	15.3368	0
201	16	6	1	6	464.8151	35	1	1000	1106487.795	0.0036	15.3544	16.3724	17.3901	18.3903	0
201	16	7	1	6	488.0845	35	1	4000	1106487.795	0.0036	18.4079	22.429	23.4468	24.447	0
201	16	8	1	6	359.1838	35	1	4000	1106487.795	0.0036	24.4813	28.5023	29.5202	30.5204	0
201	16	9	1	6	703.1978	35	1	4000	1106487.795	0.0036	30.538	34.5591	35.5769	36.5771	0
201	16	10	1	6	438.1255	35	1	4000	1106487.795	0.0036	36.5946	40.6158	41.6336	42.6337	0
201	16	11	1	6	412.5718	35	1	4000	1106487.795	0.0036	42.668	46.6892	47.7069	48.7071	0
201	16	12	1	6	467.0595	35	1	4000	1106487.795	0.0036	48.7247	52.7458	53.7636	54.7637	0
201	16	13	1	6	571.3667	32	1	4000	1106487.795	0.0036	54.7814	58.8025	59.8203	60.8204	0
201	16	14	1	6	531.2949	35	1	4000	1106487.795	0.0036	60.8381	64.8592	65.877	66.8772	0
201	16	15	1	6	577.8203	35	1	4000	1106487.795	0.0036	66.8948	70.9159	71.9337	72.9338	0
201	16	16	1	6	473.145	32	1	4000	1106487.795	0.0036	72.9681	76.9891	78.007	79.0072	0
201	16	17	1	6	424.4972	32	1	4000	1106487.795	0.0036	79.0248	83.0459	84.0636	85.0638	0
201	16	18	1	6	445.7804	35	1	4000	1106487.795	0.0036	85.0982	89.1193	90.1371	91.1372	0
201	16	19	1	6	437.5991	35	1	4000	1106487.795	0.0036	91.1549	95.176	96.1937	97.1938	0
201	16	20	1	6	469.2624	32	1	4000	1106487.795	0.0036	97.2115	101.2326	102.2504	103.2506	0
201	16	21	1	6	555.3264	35	1	4000	1106487.795	0.0036	103.2849	107.306	108.3238	109.3239	0
201	16	22	1	6	490.7677	35	1	4000	1106487.795	0.0036	109.3416	113.3627	114.3805	115.3807	0
201	16	23	1	6	433.9208	32	1	4000	1106487.795	0.0036	115.4149	119.436	120.4538	121.454	0
201	16	24	1	6	528.7853	32	1	4000	1106487.795	0.0036	121.4716	125.4927	126.5105	127.5107	0
201	16	25	1	6	520.1322	35	1	4000	1106487.795	0.0036	127.5283	131.5494	132.5672	133.5674	0
201	16	26	1	6	430.5484	32	1	4000	1106487.795	0.0036	133.6017	137.6228	138.6406	139.6407	0
201	16	27	1	6	589.6843	35	1	4000	1106487.795	0.0036	139.6584	143.6795	144.6972	145.6973	0
201	16	28	1	6	348.77	35	1	4000	1106487.795	0.0036	145.7318	149.7529	150.7706	151.7708	0
201	16	29	1	6	459.3921	32	1	4000	1106487.795	0.0036	151.7884	155.8095	156.8273	157.8274	0
201	16	30	1	6	491.2166	32	1	4000	1106487.795	0.0036	157.8451	161.8662	162.8839	163.884	0
201	17	1	1	6	412.1347	32	1	1000	1106487.795	163.8883	0.016	1.0334	2.0512	3.0513	0
201	17	2	1	6	397.1226	32	1	1000	1106487.795	163.8883	3.0856	4.1201	5.1379	6.138	0
201	17	3	1	6	512.2397	32	1	1000	1106487.795	163.8883	6.1557	7.1735	8.1911	9.1913	0
201	17	4	1	6	394.7405	35	1	1000	1106487.795	163.8883	9.2091	10.2268	11.2446	12.2448	0
201	17	5	1	6	381.2611	35	1	1000	1106487.795	163.8883	12.2624	13.2802	14.298	15.2981	0
201	17	6	1	6	398.9894	32	1	1000	1106487.795	163.8883	15.3325	16.3502	17.3681	18.3683	0
201	17	7	1	6	390.1726	35	1	4000	1106487.795	163.8883	18.4025	22.4236	23.4414	24.4415	0
201	17	8	1	6	548.7414	35	1	4000	1106487.795	163.8883	24.4592	28.4803	29.4981	30.4982	0
201	17	9	1	6	412.2452	35	1	4000	1106487.795	163.8883	30.5326	34.5369	35.5547	36.5548	0
201	17	10	1	6	388.2444	35	1	4000	1106487.795	163.8883	36.5726	40.5937	41.6115	42.6116	0
201	17	11	1	6	427.0057	32	1	4000	1106487.795	163.8883	42.6292	46.6504	47.6682	48.6683	0
201	17	12	1	6	377.6529	35	1	4000	1106487.795	163.8883	48.7026	52.7237	53.7415	54.7417	0
201	17	13	1	6	417.8226	32	1	4000	1106487.795	163.8883	54.7593	58.7804	59.7982	60.7984	0
201	17	14	1	6	512.1941	32	1	4000	1106487.795	163.8883	60.8327	64.837	65.8549	66.855	0
201	17	15	1	6	399.0622	35	1	4000	1106487.795	163.8883	66.8727	70.8938	71.9116	72.9117	0
201	17	16	1	6	406.9627	35	1	4000	1106487.795	163.8883	72.9294	76.9505	77.9683	78.9684	0
201	17	17	1	6	461.3752	32	1	4000	1106487.795	163.8883	79.0027	83.0238	84.0416	85.0417	0
201	17	18	1	6	357.4219	35	1	4000	1106487.795	163.8883	85.0594	89.0805	90.0983	91.0984	0
201	17	19	1	6	397.1457	35	1	4000	1106487.795	163.8883	91.1328	95.1371	96.155	97.1551	0
201	17	20	1	6	498.9771	32	1	4000	1106487.795	163.8883	97.1728	101.1938	102.2117	103.2118	0
201	17	21	1	6	474.6785	35	1	4000	1106487.795	163.8883	103.2294	107.2506	108.2683	109.2685	0
201	17	22	1	6	522.3905	32	1	4000	1106487.795	163.8883	109.3028	113.3239	114.3417	115.3419	0
201	17	23	1	6	385.4721	32	1	4000	1106487.795	163.8883	115.3594	119.3806	120.3984	121.3985	0
201	17	24	1	6	799.921	32	1	4000	1106487.795	163.8883	121.4329	125.4372	126.4549	127.4551	0
201	17	25	1	6	383.151	35	1	4000	1106487.795	163.8883	127.4729	131.4939	132.5117	133.5118	0
201	17	26	1	6	439.5774	35	1	4000	1106487.795	163.8883	133.5295	137.5506	138.5684	139.5685	0
201	17	27	1	6	518.0569	32	1	4000	1106487.795	163.8883	139.6029	143.624	144.6418	145.6419	0
201	17	28	1	6	549.6361	35	1	4000	1106487.795	163.8883	145.6596	149.6807	150.6984	151.6985	0
201	17	29	1	6	435.4179	35	1	4000	1106487.795	163.8883	151.7329	155.7373	156.7552	157.7553	0
201	17	30	1	6	530.9313	32	1	4000	1106487.795	163.8883	157.7729	161.794	162.8118	163.8119	0
201	18	1	1	6	535.6403	35	1	1000	1106487.795	163.8158	0.0205	1.0383	2.0561	3.0562	0
201	18	2	1	6	370.4623	35	1	1000	1106487.795	163.8158	3.0738	4.0916	5.1094	6.1096	0
201	18	3	1	6	437.0594	35	1	1000	1106487.795	163.8158	6.1272	7.145	8.1628	9.163	0
201	18	4	1	6	358.6999	35	1	1000	1106487.795	163.8158	9.1973	10.2318	11.2496	12.2497	0
201	18	5	1	6	608.1387	32	1	1000	1106487.795	163.8158	12.2673	13.2851	14.3029	15.303	0
201	18	6	1	6	395.3296	35	1	1000	1106487.795	163.8158	15.3207	16.3385	17.3563	18.3564	0
201	18	7	1	6	483.4357	32	1	4000	1106487.795	163.8158	18.3741	22.3952	23.413	24.4131	0
201	18	8	1	6	402.2734	32	1	4000	1106487.795	163.8158	24.4474	28.4685	29.4863	30.4864	0
201	18	9	1	6	400.5094	35	1	4000	1106487.795	163.8158	30.5041	34.5252	35.543	36.5432	0
201	18	10	1	6	463.0516	32	1	4000	1106487.795	163.8158	36.5775	40.5986	41.6164	42.6166	0
201	18	11	1	6	559.3128	35	1	4000	1106487.795	163.8158	42.634	46.6553	47.6731	48.6732	0
201	18	12	1	6	382.7849	35	1	4000	1106487.795	163.8158	48.6909	52.712	53.7298	54.7299	0
201	18	13	1	6	437.1672	35	1	4000	1106487.795	163.8158	54.7642	58.7853	59.8031	60.8033	0
201	18	14	1	6	412.3078	35	1	4000	1106487.795	163.8158	60.8209	64.842	65.8598	66.8599	0
201	18	15	1	6	467.3688	35	1	4000	1106487.795	163.8158	66.8774	70.8987	71.9165	72.9166	0
201	18	16	1	6	522.8331	32	1	4000	1106487.795	163.8158	72.9343	76.9554	77.9731	78.9733	0
201	18	17	1	6	497.7743	32	1	4000	1106487.795	163.8158	78.9909	83.0121	84.0298	85.03	0
201	18	18	1	6	401.0515	35	1	4000	1106487.795	163.8158	85.0643	89.0854	90.1032	91.1033	0
201	18	19	1	6	520.5949	32	1	4000	1106487.795	163.8158	91.121	95.1421	96.1599	97.16	0
201	18	20	1	6	406.4991	35	1	4000	1106487.795	163.8158	97.1944	101.2155	102.2332	103.2334	0
201	18	21	1	6	422.1404	35	1	4000	1106487.795	163.8158	103.251	107.2722	108.2898	109.29	0
201	18	22	1	6	405.6771	35	1	4000	1106487.795	163.8158	109.3077	113.3288	114.3466	115.3468	0
201	18	23	1	6	500.074	32	1	4000	1106487.795	163.8158	115.381	119.4022	120.42	121.4201	0
201	18	24	1	6	370.4328	35	1	4000	1106487.795	163.8158	121.4378	125.4589	126.4767	127.4768	0
201	18	25	1	6	457.7455	32	1	4000	1106487.795	163.8158	127.5111	131.5322	132.55	133.5501	0
201	18	26	1	6	760.5726	32	1	4000	1106487.795	163.8158	133.5678	137.5889	138.6067	139.6068	0
201	18	27	1	6	424.0055	32	1	4000	1106487.795	163.8158	139.6245	143.6456	144.6634	145.6635	0
201	18	28	1	6	414.2604	32	1	4000	1106487.795	163.8158	145.6978	149.719	150.7368	151.7369	0
201	18	29	1	6	454.784	32	1	4000	1106487.795	163.8158	151.7546	155.7757	156.7934	157.7936	0
201	18	30	1	6	396.8676	32	1	4000	1106487.795	163.8158	157.8279	161.849	162.8667	163.8669	0
201	19	1	1	7	407.5111	35	1	1000	1107151.708	0.0035	0.0268	1.0608	2.0951	3.0977	0
201	19	2	1	7	467.917	32	1	1000	1107151.708	0.0035	3.1125	4.1303	5.1481	6.1482	0
201	19	3	1	7	541.4947	32	1	1000	1107151.708	0.0035	6.1659	7.1837	8.2015	9.2016	0
201	19	4	1	7	432.0321	35	1	1000	1107151.708	0.0035	9.2193	10.237	11.2548	12.255	0
201	19	5	1	7	379.0495	35	1	1000	1107151.708	0.0035	12.2726	13.2905	14.3082	15.3084	0
201	19	6	1	7	412.8164	32	1	1000	1107151.708	0.0035	15.3427	16.3771	17.3948	18.395	0
201	19	7	1	7	363.1278	35	1	4000	1107151.708	0.0035	18.4127	22.4338	23.4516	24.4517	0
201	19	8	1	7	402.5571	35	1	4000	1107151.708	0.0035	24.4694	28.4905	29.5083	30.5084	0
201	19	9	1	7	409.5558	32	1	4000	1107151.708	0.0035	30.5428	34.5639	35.5817	36.5818	0
201	19	10	1	7	497.3806	32	1	4000	1107151.708	0.0035	36.5995	40.6206	41.6384	42.6385	0
201	19	11	1	7	432.4078	32	1	4000	1107151.708	0.0035	42.6561	46.6772	47.695	48.6952	0
201	19	12	1	7	431.4469	35	1	4000	1107151.708	0.0035	48.7128	52.7339	53.7517	54.7519	0
201	19	13	1	7	367.6238	35	1	4000	1107151.708	0.0035	54.7695	58.7906	59.8084	60.8086	0
201	19	14	1	7	733.6305	35	1	4000	1107151.708	0.0035	60.8429	64.864	65.8817	66.8818	0
201	19	15	1	7	445.6162	35	1	4000	1107151.708	0.0035	66.8996	70.9207	71.9385	72.9386	0
201	19	16	1	7	492.3861	32	1	4000	1107151.708	0.0035	72.9562	76.9773	77.9951	78.9953	0
201	19	17	1	7	483.9384	32	1	4000	1107151.708	0.0035	79.0129	83.0339	84.0518	85.052	0
201	19	18	1	7	443.7021	32	1	4000	1107151.708	0.0035	85.0696	89.0907	90.1085	91.1086	0
201	19	19	1	7	353.4758	35	1	4000	1107151.708	0.0035	91.143	95.1641	96.1819	97.182	0
201	19	20	1	7	457.0788	32	1	4000	1107151.708	0.0035	97.1996	101.2208	102.2385	103.2387	0
201	19	21	1	7	432.5809	32	1	4000	1107151.708	0.0035	103.2563	107.2774	108.2952	109.2954	0
201	19	22	1	7	488.1882	35	1	4000	1107151.708	0.0035	109.313	113.3341	114.3519	115.3521	0
201	19	23	1	7	462.6481	32	1	4000	1107151.708	0.0035	115.3697	119.3908	120.4086	121.4087	0
201	19	24	1	7	421.5085	32	1	4000	1107151.708	0.0035	121.4431	125.4642	126.482	127.4821	0
201	19	25	1	7	484.4671	32	1	4000	1107151.708	0.0035	127.4997	131.5209	132.5387	133.5388	0
201	19	26	1	7	451.994	32	1	4000	1107151.708	0.0035	133.5564	137.5775	138.5953	139.5955	0
201	19	27	1	7	714.5975	32	1	4000	1107151.708	0.0035	139.6131	143.6342	144.652	145.6521	0
201	19	28	1	7	523.164	32	1	4000	1107151.708	0.0035	145.6698	149.6909	150.7087	151.7088	0
201	19	29	1	7	385.8805	35	1	4000	1107151.708	0.0035	151.7432	155.7643	156.7821	157.7822	0
201	19	30	1	7	591.9381	32	1	4000	1107151.708	0.0035	157.7999	161.8208	162.8387	163.8389	0
201	20	1	1	7	400.7402	32	1	1000	1107151.708	163.8428	0.0104	1.028	2.0456	3.0458	0
201	20	2	1	7	378.3257	35	1	1000	1107151.708	163.8428	3.0636	4.0814	5.0991	6.0992	0
201	20	3	1	7	412.5425	32	1	1000	1107151.708	163.8428	6.1336	7.1514	8.1859	9.186	0
201	20	4	1	7	415.0536	35	1	1000	1107151.708	163.8428	9.2204	10.2381	11.256	12.2561	0
201	20	5	1	7	408.2372	32	1	1000	1107151.708	163.8428	12.2737	13.2915	14.3093	15.3094	0
201	20	6	1	7	412.376	32	1	1000	1107151.708	163.8428	15.3271	16.3449	17.3627	18.3628	0
201	20	7	1	7	434.9696	35	1	4000	1107151.708	163.8428	18.3804	22.4015	23.4361	24.4362	0
201	20	8	1	7	337.7138	35	1	4000	1107151.708	163.8428	24.4538	28.4749	29.4927	30.4928	0
201	20	9	1	7	360.8447	35	1	4000	1107151.708	163.8428	30.5105	34.5316	35.5494	36.5496	0
201	20	10	1	7	414.9663	35	1	4000	1107151.708	163.8428	36.5839	40.6049	41.6226	42.6228	0
201	20	11	1	7	398.1868	32	1	4000	1107151.708	163.8428	42.6406	46.6617	47.6795	48.6797	0
201	20	12	1	7	453.4643	32	1	4000	1107151.708	163.8428	48.6972	52.7183	53.7529	54.753	0
201	20	13	1	7	388.8898	32	1	4000	1107151.708	163.8428	54.7706	58.7917	59.8095	60.8096	0
201	20	14	1	7	396.7181	35	1	4000	1107151.708	163.8428	60.8273	64.8484	65.8662	66.8663	0
201	20	15	1	7	345.8234	35	1	4000	1107151.708	163.8428	66.9007	70.9218	71.9395	72.9397	0
201	20	16	1	7	386.4714	35	1	4000	1107151.708	163.8428	72.9573	76.9784	77.9963	78.9964	0
201	20	17	1	7	552.8686	32	1	4000	1107151.708	163.8428	79.014	83.0351	84.0696	85.0698	0
201	20	18	1	7	471.8144	32	1	4000	1107151.708	163.8428	85.0874	89.1085	90.1263	91.1264	0
201	20	19	1	7	583.4472	35	1	4000	1107151.708	163.8428	91.144	95.1652	96.183	97.1831	0
201	20	20	1	7	550.2178	32	1	4000	1107151.708	163.8428	97.2174	101.2385	102.2563	103.2565	0
201	20	21	1	7	500.5293	32	1	4000	1107151.708	163.8428	103.2741	107.2952	108.313	109.3132	0
201	20	22	1	7	371.5662	35	1	4000	1107151.708	163.8428	109.3308	113.352	114.3864	115.3865	0
201	20	23	1	7	395.3175	35	1	4000	1107151.708	163.8428	115.4042	119.4253	120.4431	121.4432	0
201	20	24	1	7	418.3892	35	1	4000	1107151.708	163.8428	121.4608	125.482	126.4997	127.4999	0
201	20	25	1	7	441.5554	35	1	4000	1107151.708	163.8428	127.5342	131.5553	132.5731	133.5732	0
201	20	26	1	7	385.2403	32	1	4000	1107151.708	163.8428	133.5909	137.612	138.6298	139.6299	0
201	20	27	1	7	423.713	32	1	4000	1107151.708	163.8428	139.6476	143.6686	144.7032	145.7033	0
201	20	28	1	7	429.6249	32	1	4000	1107151.708	163.8428	145.7209	149.742	150.7598	151.76	0
201	20	29	1	7	348.913	35	1	4000	1107151.708	163.8428	151.7776	155.7987	156.8165	157.8166	0
201	20	30	1	7	476.6518	32	1	4000	1107151.708	163.8428	157.851	161.8721	162.8898	163.89	0
201	21	1	1	7	519.8101	35	1	1000	1107151.708	163.8935	0.02	1.0378	2.0556	3.0557	0
201	21	2	1	7	346.9101	35	1	1000	1107151.708	163.8935	3.0734	4.091	5.1089	6.1091	0
201	21	3	1	7	397.2276	35	1	1000	1107151.708	163.8935	6.1267	7.1445	8.1623	9.1624	0
201	21	4	1	7	408.3823	32	1	1000	1107151.708	163.8935	9.1801	10.1979	11.2157	12.2158	0
201	21	5	1	7	450.492	32	1	1000	1107151.708	163.8935	12.25	13.2678	14.2857	15.2858	0
201	21	6	1	7	772.8683	35	1	1000	1107151.708	163.8935	15.3202	16.338	17.3558	18.3559	0
201	21	7	1	7	402.9341	35	1	4000	1107151.708	163.8935	18.3734	22.3945	23.4125	24.4126	0
201	21	8	1	7	451.1761	32	1	4000	1107151.708	163.8935	24.4303	28.4513	29.4692	30.4693	0
201	21	9	1	7	369.0884	35	1	4000	1107151.708	163.8935	30.5036	34.5247	35.5425	36.5427	0
201	21	10	1	7	440.4219	32	1	4000	1107151.708	163.8935	36.5603	40.5814	41.5992	42.5993	0
201	21	11	1	7	447.2544	32	1	4000	1107151.708	163.8935	42.6337	46.6548	47.6726	48.6727	0
201	21	12	1	7	438.7762	32	1	4000	1107151.708	163.8935	48.6903	52.7115	53.7292	54.7294	0
201	21	13	1	7	414.4451	32	1	4000	1107151.708	163.8935	54.747	58.7681	59.7859	60.786	0
201	21	14	1	7	556.5237	32	1	4000	1107151.708	163.8935	60.8204	64.8415	65.8593	66.8594	0
201	21	15	1	7	444.5792	32	1	4000	1107151.708	163.8935	66.877	70.8981	71.916	72.9161	0
201	21	16	1	7	459.7196	32	1	4000	1107151.708	163.8935	72.9505	76.9547	77.9727	78.9728	0
201	21	17	1	7	529.9843	35	1	4000	1107151.708	163.8935	78.9905	83.0115	84.0294	85.0295	0
201	21	18	1	7	569.1636	32	1	4000	1107151.708	163.8935	85.0472	89.0682	90.1027	91.1029	0
201	21	19	1	7	512.4525	32	1	4000	1107151.708	163.8935	91.1372	95.1583	96.1761	97.1762	0
201	21	20	1	7	407.719	32	1	4000	1107151.708	163.8935	97.1937	101.215	102.2328	103.2329	0
201	21	21	1	7	397.3729	35	1	4000	1107151.708	163.8935	103.2672	107.2884	108.3061	109.3063	0
201	21	22	1	7	444.2619	35	1	4000	1107151.708	163.8935	109.3239	113.345	114.3628	115.363	0
201	21	23	1	7	412.5075	32	1	4000	1107151.708	163.8935	115.3806	119.4017	120.4195	121.4196	0
201	21	24	1	7	419.6438	35	1	4000	1107151.708	163.8935	121.454	125.4751	126.4929	127.493	0
201	21	25	1	7	426.7382	32	1	4000	1107151.708	163.8935	127.5106	131.5318	132.5495	133.5497	0
201	21	26	1	7	544.8968	32	1	4000	1107151.708	163.8935	133.584	137.6051	138.6229	139.6231	0
201	21	27	1	7	416.4311	35	1	4000	1107151.708	163.8935	139.6407	143.6618	144.6796	145.6797	0
201	21	28	1	7	359.5994	32	1	4000	1107151.708	163.8935	145.6974	149.7185	150.753	151.7531	0
201	21	29	1	7	421.495	35	1	4000	1107151.708	163.8935	151.7874	155.8085	156.8263	157.8264	0
201	21	30	1	7	380.5295	32	1	4000	1107151.708	163.8935	157.8441	161.8652	162.883	163.8831	0
201	22	1	1	8	457.4204	35	1	1000	1107756.227	0.0036	0.025	1.059	2.0767	3.0793	0
201	22	2	1	8	413.5539	32	1	1000	1107756.227	0.0036	3.094	4.1118	5.1296	6.1298	0
201	22	3	1	8	400.8359	35	1	1000	1107756.227	0.0036	6.1474	7.1652	8.183	9.1831	0
201	22	4	1	8	387.7497	32	1	1000	1107756.227	0.0036	9.2006	10.2185	11.2364	12.2365	0
201	22	5	1	8	405.237	35	1	1000	1107756.227	0.0036	12.2541	13.2719	14.2897	15.2899	0
201	22	6	1	8	446.6823	32	1	1000	1107756.227	0.0036	15.3242	16.3586	17.3764	18.3766	0
201	22	7	1	8	406.1169	35	1	4000	1107756.227	0.0036	18.3942	22.4153	23.4331	24.4333	0
201	22	8	1	8	365.6594	35	1	4000	1107756.227	0.0036	24.4509	28.472	29.4898	30.4899	0
201	22	9	1	8	387.5065	35	1	4000	1107756.227	0.0036	30.5243	34.5454	35.5632	36.5633	0
201	22	10	1	8	411.1403	32	1	4000	1107756.227	0.0036	36.581	40.602	41.6199	42.62	0
201	22	11	1	8	354.4324	35	1	4000	1107756.227	0.0036	42.6376	46.6588	47.6765	48.6767	0
201	22	12	1	8	419.0952	32	1	4000	1107756.227	0.0036	48.6943	52.7154	53.7332	54.7334	0
201	22	13	1	8	513.5646	35	1	4000	1107756.227	0.0036	54.751	58.7721	59.7899	60.79	0
201	22	14	1	8	560.5634	35	1	4000	1107756.227	0.0036	60.8244	64.8455	65.8633	66.8634	0
201	22	15	1	8	391.2832	35	1	4000	1107756.227	0.0036	66.8811	70.9022	71.92	72.9201	0
201	22	16	1	8	405.7535	35	1	4000	1107756.227	0.0036	72.9544	76.9755	77.9933	78.9934	0
201	22	17	1	8	501.5955	32	1	4000	1107756.227	0.0036	79.0111	83.0322	84.05	85.0501	0
201	22	18	1	8	405.0257	32	1	4000	1107756.227	0.0036	85.0677	89.0889	90.1067	91.1068	0
201	22	19	1	8	378.9079	35	1	4000	1107756.227	0.0036	91.1412	95.1623	96.1801	97.1802	0
201	22	20	1	8	522.0713	32	1	4000	1107756.227	0.0036	97.1978	101.2188	102.2367	103.2369	0
201	22	21	1	8	417.3799	35	1	4000	1107756.227	0.0036	103.2545	107.2756	108.2935	109.2936	0
201	22	22	1	8	464.5618	32	1	4000	1107756.227	0.0036	109.3112	113.3323	114.3501	115.3503	0
201	22	23	1	8	448.9416	32	1	4000	1107756.227	0.0036	115.3678	119.389	120.4068	121.4069	0
201	22	24	1	8	431.2423	32	1	4000	1107756.227	0.0036	121.4412	125.4623	126.4802	127.4803	0
201	22	25	1	8	590.3373	35	1	4000	1107756.227	0.0036	127.4979	131.519	132.5368	133.5369	0
201	22	26	1	8	550.6133	32	1	4000	1107756.227	0.0036	133.5712	137.5756	138.5935	139.5936	0
201	22	27	1	8	388.9065	32	1	4000	1107756.227	0.0036	139.6113	143.6323	144.6502	145.6503	0
201	22	28	1	8	459.9495	35	1	4000	1107756.227	0.0036	145.668	149.6891	150.7068	151.707	0
201	22	29	1	8	490.9546	32	1	4000	1107756.227	0.0036	151.7413	155.7625	156.7802	157.7804	0
201	22	30	1	8	450.9995	35	1	4000	1107756.227	0.0036	157.798	161.8191	162.8369	163.8371	0
201	23	1	1	8	456.8135	35	1	1000	1107756.227	163.841	0.01	1.0278	2.0456	3.0457	0
201	23	2	1	8	507.8301	32	1	1000	1107756.227	163.841	3.0634	4.0813	5.099	6.0991	0
201	23	3	1	8	603.1308	32	1	1000	1107756.227	163.841	6.1335	7.1679	8.2024	9.2026	0
201	23	4	1	8	423.1381	32	1	1000	1107756.227	163.841	9.2202	10.2379	11.2557	12.2558	0
201	23	5	1	8	402.0526	32	1	1000	1107756.227	163.841	12.2736	13.2914	14.3092	15.3093	0
201	23	6	1	8	396.4207	32	1	1000	1107756.227	163.841	15.3269	16.3447	17.3625	18.3627	0
201	23	7	1	8	403.2164	35	1	4000	1107756.227	163.841	18.3803	22.4014	23.4359	24.436	0
201	23	8	1	8	369.839	35	1	4000	1107756.227	163.841	24.4537	28.4748	29.4926	30.4927	0
201	23	9	1	8	513.7721	35	1	4000	1107756.227	163.841	30.5104	34.5315	35.5493	36.5494	0
201	23	10	1	8	391.6961	35	1	4000	1107756.227	163.841	36.5837	40.6048	41.6226	42.6228	0
201	23	11	1	8	431.3398	35	1	4000	1107756.227	163.841	42.6404	46.6615	47.6793	48.6794	0
201	23	12	1	8	365.4296	35	1	4000	1107756.227	163.841	48.6971	52.7182	53.7527	54.7528	0
201	23	13	1	8	389.1549	35	1	4000	1107756.227	163.841	54.7705	58.7916	59.8094	60.8095	0
201	23	14	1	8	460.6514	32	1	4000	1107756.227	163.841	60.8271	64.8483	65.866	66.8662	0
201	23	15	1	8	506.3064	35	1	4000	1107756.227	163.841	66.9005	70.9216	71.9394	72.9395	0
201	23	16	1	8	618.3445	35	1	4000	1107756.227	163.841	72.9572	76.9783	77.9961	78.9962	0
201	23	17	1	8	384.7475	35	1	4000	1107756.227	163.841	79.0139	83.035	84.0695	85.0696	0
201	23	18	1	8	384.571	35	1	4000	1107756.227	163.841	85.0872	89.1083	90.1261	91.1263	0
201	23	19	1	8	519.3657	32	1	4000	1107756.227	163.841	91.1439	95.165	96.1828	97.183	0
201	23	20	1	8	558.6039	32	1	4000	1107756.227	163.841	97.2173	101.2383	102.2561	103.2563	0
201	23	21	1	8	397.4079	35	1	4000	1107756.227	163.841	103.274	107.2951	108.3129	109.313	0
201	23	22	1	8	452.0541	35	1	4000	1107756.227	163.841	109.3307	113.3518	114.3862	115.3864	0
201	23	23	1	8	403.2957	32	1	4000	1107756.227	163.841	115.404	119.4251	120.4429	121.4431	0
201	23	24	1	8	426.1358	32	1	4000	1107756.227	163.841	121.4607	125.4818	126.4996	127.4998	0
201	23	25	1	8	361.164	35	1	4000	1107756.227	163.841	127.5341	131.5552	132.573	133.5731	0
201	23	26	1	8	448.8107	32	1	4000	1107756.227	163.841	133.5907	137.6118	138.6296	139.6298	0
201	23	27	1	8	487.6518	32	1	4000	1107756.227	163.841	139.6474	143.6685	144.703	145.7031	0
201	23	28	1	8	470.9157	35	1	4000	1107756.227	163.841	145.7208	149.7419	150.7597	151.7598	0
201	23	29	1	8	429.5517	32	1	4000	1107756.227	163.841	151.7775	155.7985	156.8164	157.8165	0
201	23	30	1	8	349.0951	35	1	4000	1107756.227	163.841	157.8508	161.872	162.8897	163.8899	0
201	24	1	1	8	384.6802	35	1	1000	1107756.227	163.8934	0.0341	1.052	2.0698	3.0699	0
201	24	2	1	8	371.6178	35	1	1000	1107756.227	163.8934	3.0876	4.1053	5.1232	6.1234	0
201	24	3	1	8	486.4225	32	1	1000	1107756.227	163.8934	6.1409	7.1587	8.1765	9.1766	0
201	24	4	1	8	359.8974	35	1	1000	1107756.227	163.8934	9.1943	10.2121	11.2299	12.23	0
201	24	5	1	8	346.6722	35	1	1000	1107756.227	163.8934	12.2644	13.2988	14.3166	15.3168	0
201	24	6	1	8	379.5436	35	1	1000	1107756.227	163.8934	15.3511	16.3689	17.3867	18.3869	0
201	24	7	1	8	442.4371	32	1	4000	1107756.227	163.8934	18.4044	22.4256	23.4434	24.4435	0
201	24	8	1	8	473.1243	32	1	4000	1107756.227	163.8934	24.4612	28.4822	29.5167	30.5168	0
201	24	9	1	8	448.7651	32	1	4000	1107756.227	163.8934	30.5512	34.5723	35.5901	36.5902	0
201	24	10	1	8	447.7652	32	1	4000	1107756.227	163.8934	36.6078	40.629	41.6468	42.6469	0
201	24	11	1	8	679.2434	35	1	4000	1107756.227	163.8934	42.6812	46.7023	47.72	48.7201	0
201	24	12	1	8	525.5616	32	1	4000	1107756.227	163.8934	48.7379	52.759	53.7768	54.777	0
201	24	13	1	8	404.3853	32	1	4000	1107756.227	163.8934	54.7946	58.8157	59.8335	60.8336	0
201	24	14	1	8	467.8902	35	1	4000	1107756.227	163.8934	60.868	64.8891	65.9069	66.907	0
201	24	15	1	8	435.0403	35	1	4000	1107756.227	163.8934	66.9246	70.9457	71.9636	72.9637	0
201	24	16	1	8	482.3913	35	1	4000	1107756.227	163.8934	72.998	77.0191	78.0369	79.037	0
201	24	17	1	8	561.7664	32	1	4000	1107756.227	163.8934	79.0546	83.0758	84.0936	85.0938	0
201	24	18	1	8	439.1302	32	1	4000	1107756.227	163.8934	85.1114	89.1325	90.1669	91.1671	0
201	24	19	1	8	518.2122	32	1	4000	1107756.227	163.8934	91.2014	95.2224	96.2403	97.2404	0
201	24	20	1	8	390.3073	35	1	4000	1107756.227	163.8934	97.2581	101.2792	102.297	103.2971	0
201	24	21	1	8	468.0432	32	1	4000	1107756.227	163.8934	103.3315	107.3526	108.3704	109.3705	0
201	24	22	1	8	436.0075	35	1	4000	1107756.227	163.8934	109.3882	113.4093	114.427	115.4272	0
201	24	23	1	8	474.5031	32	1	4000	1107756.227	163.8934	115.4448	119.4659	120.5004	121.5006	0
201	24	24	1	8	408.9716	32	1	4000	1107756.227	163.8934	121.5181	125.5393	126.5571	127.5573	0
201	24	25	1	8	456.8855	35	1	4000	1107756.227	163.8934	127.5749	131.596	132.6138	133.614	0
201	24	26	1	8	510.828	32	1	4000	1107756.227	163.8934	133.6483	137.6694	138.6872	139.6873	0
201	24	27	1	8	582.3	35	1	4000	1107756.227	163.8934	139.705	143.7261	144.7438	145.7439	0
201	24	28	1	8	661.668	32	1	4000	1107756.227	163.8934	145.7616	149.7827	150.8171	151.8173	0
201	24	29	1	8	444.3878	35	1	4000	1107756.227	163.8934	151.835	155.8561	156.8739	157.874	0
201	24	30	1	8	459.6503	35	1	4000	1107756.227	163.8934	157.8917	161.9128	162.9306	163.9307	0
202	1	1	1	1	816.9843	32	0	1000	2239938.9501	 0.0039	 0.0179	 1.0351	 2.0527	 3.0554	0
202	1	2	1	1	 1.0348	32	1	1000	2239938.9501	 0.0039	 3.8544	 4.8722	 5.8898	 6.8899	0
202	1	3	1	1	504.2879	35	1	1000	2239938.9501	 0.0039	 6.9078	 7.9255	 8.9432	 9.9434	0
202	1	4	1	1	457.0710	35	1	1000	2239938.9501	 0.0039	 9.9778	11.0123	12.0467	13.0468	0
202	1	5	1	1	466.4807	35	1	1000	2239938.9501	 0.0039	13.0645	14.0823	15.1001	16.1004	0
202	1	6	1	1	477.4717	32	1	1000	2239938.9501	 0.0039	16.1178	17.1356	18.1535	19.1537	0
202	1	7	1	1	532.3996	32	1	4000	2239938.9501	 0.0039	19.1713	23.1923	24.2102	25.2103	0
202	1	8	1	1	490.7617	32	1	4000	2239938.9501	 0.0039	25.2447	29.2657	30.2835	31.2837	0
202	1	9	1	1	435.4150	32	1	4000	2239938.9501	 0.0039	31.3013	35.3224	36.3402	37.3404	0
202	1	10	1	1	458.9033	35	1	4000	2239938.9501	 0.0039	37.3580	41.3791	42.3969	43.3970	0
202	1	11	1	1	640.7335	32	1	4000	2239938.9501	 0.0039	43.4147	47.4358	48.4536	49.4537	0
202	1	12	1	1	 1.0511	32	0	4000	2239938.9501	 0.0039	49.4714	53.4923	54.5103	55.5104	0
202	1	13	1	1	527.4570	35	1	4000	2239938.9501	 0.0039	56.3290	60.3499	61.3678	62.3680	0
202	1	14	1	1	471.2663	32	1	4000	2239938.9501	 0.0039	62.3856	66.4067	67.4245	68.4247	0
202	1	15	1	1	 1.0504	32	1	4000	2239938.9501	 0.0039	68.4590	72.4801	73.4979	74.4980	0
202	1	16	1	1	396.4420	32	1	4000	2239938.9501	 0.0039	74.5157	78.5367	79.5546	80.5547	0
202	1	17	1	1	516.3762	35	1	4000	2239938.9501	 0.0039	80.5723	84.5934	85.6112	86.6114	0
202	1	18	1	1	538.8422	32	1	4000	2239938.9501	 0.0039	86.6544	90.6668	91.6846	92.6847	0
202	1	19	1	1	466.4733	32	1	4000	2239938.9501	 0.0039	92.7024	96.7235	97.7413	98.7414	0
202	1	20	1	1	416.8624	32	1	4000	2239938.9501	 0.0039	98.7758	102.7969	103.8146	104.8148	0
202	1	21	1	1	471.6023	35	1	4000	2239938.9501	 0.0039	104.8324	108.8535	109.8713	110.8715	0
202	1	22	1	1	431.1232	35	1	4000	2239938.9501	 0.0039	110.8891	114.9102	115.9280	116.9281	0
202	1	23	1	1	429.6016	35	1	4000	2239938.9501	 0.0039	116.9625	120.9836	122.0014	123.0016	0
202	1	24	1	1	436.7171	32	1	4000	2239938.9501	 0.0039	123.0192	127.0403	128.0581	129.0582	0
202	1	25	1	1	411.7752	35	1	4000	2239938.9501	 0.0039	129.0925	133.0968	134.1147	135.1149	0
202	1	26	1	1	675.8412	32	1	4000	2239938.9501	 0.0039	135.1325	139.1536	140.1714	141.1716	0
202	1	27	1	1	402.0217	35	1	4000	2239938.9501	 0.0039	141.1892	145.2103	146.2448	147.2449	0
202	1	28	1	1	425.0957	35	1	4000	2239938.9501	 0.0039	147.2793	151.3004	152.3182	153.3183	0
202	1	29	1	1	440.7931	32	1	4000	2239938.9501	 0.0039	153.3360	157.3571	158.3748	159.3750	0
202	1	30	1	1	415.4862	32	1	4000	2239938.9501	 0.0039	159.4093	163.4305	164.4482	165.4484	0
202	2	1	1	1	496.1165	35	1	1000	2239938.9501	165.4522	 0.0201	 1.0377	 2.0553	 3.0555	0
202	2	2	1	1	474.2110	35	1	1000	2239938.9501	165.4522	 3.0733	 4.0910	 5.1088	 6.1090	0
202	2	3	1	1	484.5099	32	1	1000	2239938.9501	165.4522	 6.1266	 7.1443	 8.1622	 9.1623	0
202	2	4	1	1	453.6387	35	1	1000	2239938.9501	165.4522	 9.1967	10.2311	11.2656	12.2658	0
202	2	5	1	1	438.7681	32	1	1000	2239938.9501	165.4522	12.3001	13.3179	14.3357	15.3358	0
202	2	6	1	1	442.2510	32	1	1000	2239938.9501	165.4522	15.3535	16.3712	17.3890	18.3892	0
202	2	7	1	1	521.3114	35	1	4000	2239938.9501	165.4522	18.4068	22.4279	23.4457	24.4459	0
202	2	8	1	1	479.5489	35	1	4000	2239938.9501	165.4522	24.4801	28.5013	29.5191	30.5192	0
202	2	9	1	1	535.0903	32	1	4000	2239938.9501	165.4522	30.5369	34.5580	35.5758	36.5759	0
202	2	10	1	1	422.4460	35	1	4000	2239938.9501	165.4522	36.5936	40.6147	41.6491	42.6493	0
202	2	11	1	1	548.7754	32	1	4000	2239938.9501	165.4522	42.6669	46.6880	47.7058	48.7059	0
202	2	12	1	1	452.1672	32	1	4000	2239938.9501	165.4522	48.7236	52.7447	53.7625	54.7627	0
202	2	13	1	1	459.2897	32	1	4000	2239938.9501	165.4522	54.7970	58.8181	59.8359	60.8360	0
202	2	14	1	1	506.1691	32	1	4000	2239938.9501	165.4522	60.8537	64.8748	65.8925	66.8927	0
202	2	15	1	1	425.5968	32	1	4000	2239938.9501	165.4522	66.9103	70.9314	71.9659	72.9661	0
202	2	16	1	1	496.0349	32	1	4000	2239938.9501	165.4522	72.9837	77.0048	78.0226	79.0228	0
202	2	17	1	1	560.2007	35	1	4000	2239938.9501	165.4522	79.0404	83.0615	84.0793	85.0794	0
202	2	18	1	1	471.0339	32	1	4000	2239938.9501	165.4522	85.1138	89.1348	90.1526	91.1528	0
202	2	19	1	1	533.7969	32	1	4000	2239938.9501	165.4522	91.1704	95.1915	96.2093	97.2095	0
202	2	20	1	1	539.6853	32	1	4000	2239938.9501	165.4522	97.2271	101.2482	102.2827	103.2829	0
202	2	21	1	1	435.9684	35	1	4000	2239938.9501	165.4522	103.3005	107.3216	108.3394	109.3395	0
202	2	22	1	1	531.5019	32	1	4000	2239938.9501	165.4522	109.3572	113.3782	114.3961	115.3962	0
202	2	23	1	1	497.5993	35	1	4000	2239938.9501	165.4522	115.4306	119.4515	120.4694	121.4696	0
202	2	24	1	1	424.7262	32	1	4000	2239938.9501	165.4522	121.4871	125.5083	126.5261	127.5263	0
202	2	25	1	1	782.9956	32	1	4000	2239938.9501	165.4522	127.5439	131.5650	132.5995	133.5996	0
202	2	26	1	1	463.6426	32	1	4000	2239938.9501	165.4522	133.6173	137.6384	138.6562	139.6563	0
202	2	27	1	1	445.7389	32	1	4000	2239938.9501	165.4522	139.6739	143.6950	144.7128	145.7130	0
202	2	28	1	1	661.2645	32	1	4000	2239938.9501	165.4522	145.7473	149.7684	150.7862	151.7863	0
202	2	29	1	1	523.7771	32	1	4000	2239938.9501	165.4522	151.8040	155.8250	156.8429	157.8430	0
202	2	30	1	1	443.2945	32	1	4000	2239938.9501	165.4522	157.8606	161.8818	162.9163	163.9164	0
202	3	1	1	1	551.0792	35	1	1000	2239938.9501	163.9198	 0.0278	 1.0622	 2.0967	 3.0969	0
202	3	2	1	1	657.7024	32	1	1000	2239938.9501	163.9198	 3.1145	 4.1323	 5.1501	 6.1502	0
202	3	3	1	1	515.7370	35	1	1000	2239938.9501	163.9198	 6.1679	 7.1856	 8.2035	 9.2036	0
202	3	4	1	1	438.3543	35	1	1000	2239938.9501	163.9198	 9.2213	10.2390	11.2568	12.2570	0
202	3	5	1	1	568.9908	32	1	1000	2239938.9501	163.9198	12.2746	13.2924	14.3102	15.3103	0
202	3	6	1	1	457.8110	32	1	1000	2239938.9501	163.9198	15.3446	16.3792	17.4136	18.4138	0
202	3	7	1	1	441.6460	32	1	4000	2239938.9501	163.9198	18.4314	22.4525	23.4703	24.4705	0
202	3	8	1	1	464.4329	32	1	4000	2239938.9501	163.9198	24.4881	28.5092	29.5270	30.5271	0
202	3	9	1	1	422.3229	35	1	4000	2239938.9501	163.9198	30.5615	34.5826	35.6003	36.6004	0
202	3	10	1	1	495.2070	32	1	4000	2239938.9501	163.9198	36.6182	40.6393	41.6570	42.6572	0
202	3	11	1	1	389.2831	32	1	4000	2239938.9501	163.9198	42.6749	46.6959	47.7304	48.7306	0
202	3	12	1	1	 1.0473	32	0	4000	2239938.9501	163.9198	48.7482	52.7693	53.7871	54.7872	0
202	3	13	1	1	 1.0497	32	1	4000	2239938.9501	163.9198	55.5724	59.5934	60.6280	61.6281	0
202	3	14	1	1	417.2978	35	1	4000	2239938.9501	163.9198	61.6625	65.6835	66.7013	67.7015	0
202	3	15	1	1	426.0452	35	1	4000	2239938.9501	163.9198	67.7191	71.7402	72.7580	73.7582	0
202	3	16	1	1	544.4427	32	1	4000	2239938.9501	163.9198	73.7925	77.8136	78.8314	79.8315	0
202	3	17	1	1	454.6300	35	1	4000	2239938.9501	163.9198	79.8492	83.8703	84.8881	85.8882	0
202	3	18	1	1	398.5935	32	1	4000	2239938.9501	163.9198	85.9058	89.9269	90.9448	91.9449	0
202	3	19	1	1	445.8011	32	1	4000	2239938.9501	163.9198	91.9792	96.0003	97.0181	98.0183	0
202	3	20	1	1	452.3247	32	1	4000	2239938.9501	163.9198	98.0359	102.0570	103.0748	104.0750	0
202	3	21	1	1	499.3872	35	1	4000	2239938.9501	163.9198	104.1092	108.1304	109.1482	110.1483	0
202	3	22	1	1	491.0900	35	1	4000	2239938.9501	163.9198	110.1658	114.1871	115.2049	116.2050	0
202	3	23	1	1	409.6012	32	1	4000	2239938.9501	163.9198	116.2227	120.2437	121.2615	122.2617	0
202	3	24	1	1	463.7606	32	1	4000	2239938.9501	163.9198	122.2960	126.3171	127.3349	128.3351	0
202	3	25	1	1	447.5695	35	1	4000	2239938.9501	163.9198	128.3527	132.3738	133.3916	134.3918	0
202	3	26	1	1	446.6051	35	1	4000	2239938.9501	163.9198	134.4261	138.4471	139.4649	140.4651	0
202	3	27	1	1	525.5195	32	1	4000	2239938.9501	163.9198	140.4827	144.5038	145.5216	146.5218	0
202	3	28	1	1	429.4446	32	1	4000	2239938.9501	163.9198	146.5394	150.5605	151.5783	152.5785	0
202	3	29	1	1	460.3647	32	1	4000	2239938.9501	163.9198	152.6128	156.6339	157.6517	158.6518	0
202	3	30	1	1	418.2690	35	1	4000	2239938.9501	163.9198	158.6695	162.6906	163.7084	164.7085	0
202	4	1	1	2	465.3298	35	1	1000	2240653.3977	 0.0039	 0.0246	 1.0584	 2.0928	 3.0954	0
202	4	2	1	2	556.7145	35	1	1000	2240653.3977	 0.0039	 3.1268	 4.1613	 5.1791	 6.1793	0
202	4	3	1	2	414.4341	35	1	1000	2240653.3977	 0.0039	 6.1969	 7.2147	 8.2325	 9.2326	0
202	4	4	1	2	408.9878	35	1	1000	2240653.3977	 0.0039	 9.2503	10.2680	11.2858	12.2860	0
202	4	5	1	2	380.3622	35	1	1000	2240653.3977	 0.0039	12.3035	13.3214	14.3392	15.3394	0
202	4	6	1	2	446.4221	35	1	1000	2240653.3977	 0.0039	15.3570	16.3748	17.3926	18.3927	0
202	4	7	1	2	541.1419	35	1	4000	2240653.3977	 0.0039	18.4271	22.4482	23.4659	24.4661	0
202	4	8	1	2	437.6803	32	1	4000	2240653.3977	 0.0039	24.4837	28.5048	29.5226	30.5227	0
202	4	9	1	2	364.1218	35	1	4000	2240653.3977	 0.0039	30.5571	34.5781	35.5960	36.5962	0
202	4	10	1	2	627.2862	32	1	4000	2240653.3977	 0.0039	36.6138	40.6349	41.6527	42.6528	0
202	4	11	1	2	386.0000	35	1	4000	2240653.3977	 0.0039	42.6705	46.6915	47.7093	48.7095	0
202	4	12	1	2	409.5549	32	1	4000	2240653.3977	 0.0039	48.7438	52.7649	53.7827	54.7829	0
202	4	13	1	2	368.3618	35	1	4000	2240653.3977	 0.0039	54.8005	58.8216	59.8394	60.8396	0
202	4	14	1	2	606.8176	35	1	4000	2240653.3977	 0.0039	60.8571	64.8783	65.8961	66.8962	0
202	4	15	1	2	342.2970	35	1	4000	2240653.3977	 0.0039	66.9139	70.9350	71.9528	72.9529	0
202	4	16	1	2	357.9855	35	1	4000	2240653.3977	 0.0039	72.9706	76.9916	78.0095	79.0096	0
202	4	17	1	2	428.3695	35	1	4000	2240653.3977	 0.0039	79.0439	83.0650	84.0829	85.0830	0
202	4	18	1	2	428.7883	32	1	4000	2240653.3977	 0.0039	85.1006	89.1217	90.1395	91.1397	0
202	4	19	1	2	395.3310	35	1	4000	2240653.3977	 0.0039	91.1740	95.1950	96.2129	97.2130	0
202	4	20	1	2	474.4785	35	1	4000	2240653.3977	 0.0039	97.2305	101.2516	102.2695	103.2697	0
202	4	21	1	2	465.6365	32	1	4000	2240653.3977	 0.0039	103.2873	107.3084	108.3262	109.3263	0
202	4	22	1	2	375.2421	32	1	4000	2240653.3977	 0.0039	109.3606	113.3818	114.3995	115.3997	0
202	4	23	1	2	415.4570	35	1	4000	2240653.3977	 0.0039	115.4174	119.4385	120.4563	121.4565	0
202	4	24	1	2	437.1926	32	1	4000	2240653.3977	 0.0039	121.4908	125.5118	126.5296	127.5298	0
202	4	25	1	2	533.1933	32	1	4000	2240653.3977	 0.0039	127.5474	131.5685	132.5863	133.5864	0
202	4	26	1	2	396.8475	32	1	4000	2240653.3977	 0.0039	133.6041	137.6252	138.6430	139.6431	0
202	4	27	1	2	403.3710	35	1	4000	2240653.3977	 0.0039	139.6775	143.6986	144.7164	145.7165	0
202	4	28	1	2	435.0174	35	1	4000	2240653.3977	 0.0039	145.7342	149.7552	150.7731	151.7732	0
202	4	29	1	2	401.3050	35	1	4000	2240653.3977	 0.0039	151.8075	155.8286	156.8464	157.8465	0
202	4	30	1	2	497.1347	32	1	4000	2240653.3977	 0.0039	157.8642	161.8853	162.9031	163.9033	0
202	5	1	1	2	450.0096	32	1	1000	2240653.3977	163.9071	 0.0243	 1.0588	 2.0932	 3.0934	0
202	5	2	1	2	541.4860	35	1	1000	2240653.3977	163.9071	 3.1110	 4.1288	 5.1466	 6.1467	0
202	5	3	1	2	503.5372	35	1	1000	2240653.3977	163.9071	 6.1644	 7.1822	 8.1999	 9.2001	0
202	5	4	1	2	370.6044	35	1	1000	2240653.3977	163.9071	 9.2177	10.2355	11.2533	12.2535	0
202	5	5	1	2	396.9467	32	1	1000	2240653.3977	163.9071	12.2711	13.2889	14.3067	15.3068	0
202	5	6	1	2	533.9297	32	1	1000	2240653.3977	163.9071	15.3412	16.3757	17.4101	18.4103	0
202	5	7	1	2	364.3177	35	1	4000	2240653.3977	163.9071	18.4279	22.4490	23.4668	24.4669	0
202	5	8	1	2	403.1839	35	1	4000	2240653.3977	163.9071	24.4846	28.5056	29.5235	30.5236	0
202	5	9	1	2	378.8887	35	1	4000	2240653.3977	163.9071	30.5580	34.5789	35.5967	36.5969	0
202	5	10	1	2	450.2037	32	1	4000	2240653.3977	163.9071	36.6146	40.6357	41.6535	42.6537	0
202	5	11	1	2	416.9914	32	1	4000	2240653.3977	163.9071	42.6713	46.6924	47.7269	48.7270	0
202	5	12	1	2	423.0979	32	1	4000	2240653.3977	163.9071	48.7447	52.7658	53.7836	54.7837	0
202	5	13	1	2	350.7677	35	1	4000	2240653.3977	163.9071	54.8014	58.8225	59.8402	60.8404	0
202	5	14	1	2	454.1484	35	1	4000	2240653.3977	163.9071	60.8748	64.8958	65.9136	66.9137	0
202	5	15	1	2	404.9421	35	1	4000	2240653.3977	163.9071	66.9314	70.9525	71.9703	72.9705	0
202	5	16	1	2	371.1757	35	1	4000	2240653.3977	163.9071	72.9881	77.0092	78.0437	79.0438	0
202	5	17	1	2	354.6636	35	1	4000	2240653.3977	163.9071	79.0615	83.0826	84.1003	85.1004	0
202	5	18	1	2	370.0168	35	1	4000	2240653.3977	163.9071	85.1181	89.1392	90.1570	91.1572	0
202	5	19	1	2	400.2681	35	1	4000	2240653.3977	163.9071	91.1915	95.2126	96.2304	97.2305	0
202	5	20	1	2	503.6980	32	1	4000	2240653.3977	163.9071	97.2482	101.2693	102.2871	103.2872	0
202	5	21	1	2	358.9282	35	1	4000	2240653.3977	163.9071	103.3049	107.3259	108.3605	109.3606	0
202	5	22	1	2	446.9720	32	1	4000	2240653.3977	163.9071	109.3782	113.3994	114.4171	115.4172	0
202	5	23	1	2	357.6043	35	1	4000	2240653.3977	163.9071	115.4350	119.4560	120.4738	121.4740	0
202	5	24	1	2	451.4943	32	1	4000	2240653.3977	163.9071	121.5083	125.5294	126.5472	127.5473	0
202	5	25	1	2	483.9972	32	1	4000	2240653.3977	163.9071	127.5650	131.5861	132.6038	133.6040	0
202	5	26	1	2	410.4467	35	1	4000	2240653.3977	163.9071	133.6217	137.6427	138.6772	139.6774	0
202	5	27	1	2	370.2495	35	1	4000	2240653.3977	163.9071	139.6950	143.7161	144.7339	145.7340	0
202	5	28	1	2	345.2511	35	1	4000	2240653.3977	163.9071	145.7517	149.7728	150.7906	151.7907	0
202	5	29	1	2	391.9892	35	1	4000	2240653.3977	163.9071	151.8251	155.8462	156.8640	157.8641	0
202	5	30	1	2	415.0858	35	1	4000	2240653.3977	163.9071	157.8818	161.9029	162.9206	163.9207	0
202	6	1	1	2	395.0566	35	1	1000	2240653.3977	163.9242	 0.0245	 1.0423	 2.0601	 3.0603	0
202	6	2	1	2	452.8643	35	0	1000	2240653.3977	163.9242	 3.0779	 4.0955	 5.1135	 6.1136	0
202	6	3	1	2	529.4227	35	1	1000	2240653.3977	163.9242	 6.8988	 7.9165	 8.9343	 9.9344	0
202	6	4	1	2	522.6503	35	1	1000	2240653.3977	163.9242	 9.9522	10.9698	11.9877	12.9879	0
202	6	5	1	2	516.1187	32	1	1000	2240653.3977	163.9242	13.0222	14.0567	15.0911	16.0913	0
202	6	6	1	2	543.2006	32	1	1000	2240653.3977	163.9242	16.1088	17.1267	18.1445	19.1446	0
202	6	7	1	2	397.8473	32	1	4000	2240653.3977	163.9242	19.1622	23.1834	24.2012	25.2013	0
202	6	8	1	2	324.8688	35	1	4000	2240653.3977	163.9242	25.2190	29.2400	30.2746	31.2747	0
202	6	9	1	2	347.8577	35	1	4000	2240653.3977	163.9242	31.2923	35.3135	36.3312	37.3314	0
202	6	10	1	2	419.6125	32	1	4000	2240653.3977	163.9242	37.3490	41.3701	42.3879	43.3881	0
202	6	11	1	2	401.7599	35	0	4000	2240653.3977	163.9242	43.4224	47.4435	48.4612	49.4614	0
202	6	12	1	2	682.3990	35	1	4000	2240653.3977	163.9242	50.2466	54.2677	55.2855	56.2856	0
202	6	13	1	2	463.9297	32	1	4000	2240653.3977	163.9242	56.3200	60.3410	61.3589	62.3590	0
202	6	14	1	2	455.4254	32	1	4000	2240653.3977	163.9242	62.3766	66.3977	67.4155	68.4157	0
202	6	15	1	2	462.5960	32	1	4000	2240653.3977	163.9242	68.4333	72.4544	73.4722	74.4723	0
202	6	16	1	2	420.7643	32	1	4000	2240653.3977	163.9242	74.5067	78.5278	79.5456	80.5457	0
202	6	17	1	2	564.1733	35	1	4000	2240653.3977	163.9242	80.5633	84.5845	85.6022	86.6024	0
202	6	18	1	2	532.0699	32	1	4000	2240653.3977	163.9242	86.6200	90.6411	91.6589	92.6591	0
202	6	19	1	2	451.7772	32	1	4000	2240653.3977	163.9242	92.6767	96.6978	97.7156	98.7158	0
202	6	20	1	2	450.6907	35	1	4000	2240653.3977	163.9242	98.7334	102.7545	103.7723	104.7725	0
202	6	21	1	2	440.8901	32	1	4000	2240653.3977	163.9242	104.8068	108.8279	109.8457	110.8458	0
202	6	22	1	2	496.0858	32	1	4000	2240653.3977	163.9242	110.8635	114.8846	115.9023	116.9025	0
202	6	23	1	2	463.1781	32	1	4000	2240653.3977	163.9242	116.9368	120.9579	121.9757	122.9758	0
202	6	24	1	2	398.6151	32	1	4000	2240653.3977	163.9242	122.9935	127.0146	128.0323	129.0325	0
202	6	25	1	2	477.3159	35	1	4000	2240653.3977	163.9242	129.0502	133.0713	134.0891	135.0892	0
202	6	26	1	2	444.8704	35	1	4000	2240653.3977	163.9242	135.1236	139.1445	140.1624	141.1626	0
202	6	27	1	2	467.6108	32	1	4000	2240653.3977	163.9242	141.1803	145.2013	146.2191	147.2193	0
202	6	28	1	2	418.9206	35	1	4000	2240653.3977	163.9242	147.2369	151.2580	152.2758	153.2759	0
202	6	29	1	2	490.3333	32	1	4000	2240653.3977	163.9242	153.2936	157.3147	158.3325	159.3327	0
202	6	30	1	2	409.9827	35	1	4000	2240653.3977	163.9242	159.3503	163.3713	164.3892	165.3893	0
202	7	1	1	3	503.2396	35	1	1000	2241281.8777	 0.0040	 0.0268	 1.0607	 2.0784	 3.0811	0
202	7	2	1	3	619.5711	32	1	1000	2241281.8777	 0.0040	 3.1124	 4.1302	 5.1481	 6.1482	0
202	7	3	1	3	534.3634	35	1	1000	2241281.8777	 0.0040	 6.1658	 7.1836	 8.2014	 9.2015	0
202	7	4	1	3	567.1345	32	1	1000	2241281.8777	 0.0040	 9.2359	10.2703	11.2881	12.2883	0
202	7	5	1	3	506.0002	35	1	1000	2241281.8777	 0.0040	12.3059	13.3237	14.3415	15.3417	0
202	7	6	1	3	469.2295	32	1	1000	2241281.8777	 0.0040	15.3592	16.3771	17.3949	18.3950	0
202	7	7	1	3	491.5478	35	1	4000	2241281.8777	 0.0040	18.4127	22.4337	23.4516	24.4517	0
202	7	8	1	3	442.9555	35	1	4000	2241281.8777	 0.0040	24.4860	28.5071	29.5249	30.5250	0
202	7	9	1	3	434.6083	32	1	4000	2241281.8777	 0.0040	30.5428	34.5638	35.5816	36.5817	0
202	7	10	1	3	497.0642	35	1	4000	2241281.8777	 0.0040	36.5994	40.6205	41.6383	42.6385	0
202	7	11	1	3	408.1721	32	1	4000	2241281.8777	 0.0040	42.6561	46.6772	47.6948	48.6950	0
202	7	12	1	3	472.2669	35	1	4000	2241281.8777	 0.0040	48.7127	52.7338	53.7516	54.7518	0
202	7	13	1	3	390.3365	35	1	4000	2241281.8777	 0.0040	54.7861	58.8072	59.8250	60.8252	0
202	7	14	1	3	414.3877	35	1	4000	2241281.8777	 0.0040	60.8428	64.8639	65.8817	66.8818	0
202	7	15	1	3	436.9302	35	1	4000	2241281.8777	 0.0040	66.8995	70.9206	71.9384	72.9385	0
202	7	16	1	3	443.6922	35	1	4000	2241281.8777	 0.0040	72.9562	76.9773	77.9951	78.9952	0
202	7	17	1	3	483.9597	32	1	4000	2241281.8777	 0.0040	79.0127	83.0339	84.0517	85.0519	0
202	7	18	1	3	362.4365	35	1	4000	2241281.8777	 0.0040	85.0862	89.1072	90.1251	91.1252	0
202	7	19	1	3	457.4281	32	1	4000	2241281.8777	 0.0040	91.1429	95.1640	96.1818	97.1820	0
202	7	20	1	3	416.7741	35	1	4000	2241281.8777	 0.0040	97.1995	101.2207	102.2385	103.2386	0
202	7	21	1	3	383.5636	32	1	4000	2241281.8777	 0.0040	103.2563	107.2773	108.2952	109.2953	0
202	7	22	1	3	447.1663	32	1	4000	2241281.8777	 0.0040	109.3129	113.3341	114.3518	115.3520	0
202	7	23	1	3	701.5504	35	1	4000	2241281.8777	 0.0040	115.3863	119.4074	120.4252	121.4254	0
202	7	24	1	3	518.1270	32	1	4000	2241281.8777	 0.0040	121.4430	125.4641	126.4819	127.4820	0
202	7	25	1	3	396.6844	32	1	4000	2241281.8777	 0.0040	127.5164	131.5374	132.5552	133.5554	0
202	7	26	1	3	523.2851	35	1	4000	2241281.8777	 0.0040	133.5730	137.5941	138.6119	139.6121	0
202	7	27	1	3	490.7880	32	1	4000	2241281.8777	 0.0040	139.6297	143.6507	144.6686	145.6687	0
202	7	28	1	3	385.9939	35	1	4000	2241281.8777	 0.0040	145.7031	149.7242	150.7420	151.7421	0
202	7	29	1	3	385.3935	32	0	4000	2241281.8777	 0.0040	151.7598	155.7809	156.7987	157.7988	0
202	7	30	1	3	615.4723	32	1	4000	2241281.8777	 0.0040	158.6173	162.6383	163.6562	164.6563	0
202	8	1	1	3	480.4793	35	1	1000	2241281.8777	164.6602	 0.0192	 1.0370	 2.0548	 3.0549	0
202	8	2	1	3	971.8116	32	1	1000	2241281.8777	164.6602	 3.0725	 4.0903	 5.1081	 6.1083	0
202	8	3	1	3	484.7341	32	1	1000	2241281.8777	164.6602	 6.1427	 7.1771	 8.2114	 9.2116	0
202	8	4	1	3	414.2023	35	1	1000	2241281.8777	164.6602	 9.2294	10.2471	11.2649	12.2651	0
202	8	5	1	3	425.7711	32	1	1000	2241281.8777	164.6602	12.2827	13.3005	14.3183	15.3184	0
202	8	6	1	3	428.2781	32	1	1000	2241281.8777	164.6602	15.3360	16.3539	17.3717	18.3718	0
202	8	7	1	3	410.9169	35	1	4000	2241281.8777	164.6602	18.3895	22.4106	23.4284	24.4285	0
202	8	8	1	3	426.4280	35	1	4000	2241281.8777	164.6602	24.4461	28.4673	29.4850	30.4851	0
202	8	9	1	3	537.9089	32	1	4000	2241281.8777	164.6602	30.5028	34.5239	35.5417	36.5419	0
202	8	10	1	3	416.5423	32	1	4000	2241281.8777	164.6602	36.5762	40.5972	41.6151	42.6152	0
202	8	11	1	3	479.2010	35	1	4000	2241281.8777	164.6602	42.6329	46.6539	47.6718	48.6719	0
202	8	12	1	3	494.3733	35	1	4000	2241281.8777	164.6602	48.6896	52.7106	53.7285	54.7286	0
202	8	13	1	3	374.4513	35	1	4000	2241281.8777	164.6602	54.7462	58.7673	59.7851	60.7853	0
202	8	14	1	3	429.9884	32	1	4000	2241281.8777	164.6602	60.8029	64.8240	65.8418	66.8420	0
202	8	15	1	3	419.6689	32	1	4000	2241281.8777	164.6602	66.8763	70.8974	71.9152	72.9154	0
202	8	16	1	3	346.6267	35	1	4000	2241281.8777	164.6602	72.9330	76.9541	77.9719	78.9720	0
202	8	17	1	3	387.6016	35	1	4000	2241281.8777	164.6602	78.9897	83.0108	84.0286	85.0287	0
202	8	18	1	3	449.9307	35	1	4000	2241281.8777	164.6602	85.0463	89.0674	90.0852	91.0854	0
202	8	19	1	3	384.3824	35	1	4000	2241281.8777	164.6602	91.1030	95.1241	96.1419	97.1420	0
202	8	20	1	3	384.9093	35	1	4000	2241281.8777	164.6602	97.1764	101.1975	102.2153	103.2154	0
202	8	21	1	3	415.5369	32	1	4000	2241281.8777	164.6602	103.2331	107.2542	108.2720	109.2721	0
202	8	22	1	3	430.1015	35	1	4000	2241281.8777	164.6602	109.2897	113.3108	114.3286	115.3287	0
202	8	23	1	3	493.4593	32	1	4000	2241281.8777	164.6602	115.3464	119.3675	120.3853	121.3854	0
202	8	24	1	3	429.6508	32	1	4000	2241281.8777	164.6602	121.4031	125.4243	126.4420	127.4421	0
202	8	25	1	3	419.2801	35	1	4000	2241281.8777	164.6602	127.4765	131.4976	132.5154	133.5155	0
202	8	26	1	3	387.6928	35	1	4000	2241281.8777	164.6602	133.5332	137.5543	138.5721	139.5722	0
202	8	27	1	3	529.0961	35	1	4000	2241281.8777	164.6602	139.6065	143.6276	144.6454	145.6456	0
202	8	28	1	3	440.3348	32	1	4000	2241281.8777	164.6602	145.6632	149.6843	150.7021	151.7022	0
202	8	29	1	3	400.8773	35	1	4000	2241281.8777	164.6602	151.7198	155.7410	156.7588	157.7590	0
202	8	30	1	3	487.5788	32	1	4000	2241281.8777	164.6602	157.7932	161.8144	162.8322	163.8323	0
202	9	1	1	3	698.5001	32	1	1000	2241281.8777	163.8358	 0.0250	 1.0427	 2.0605	 3.0606	0
202	9	2	1	3	468.8871	35	1	1000	2241281.8777	163.8358	 3.0949	 4.1127	 5.1472	 6.1473	0
202	9	3	1	3	445.8831	35	1	1000	2241281.8777	163.8358	 6.1817	 7.1994	 8.2172	 9.2174	0
202	9	4	1	3	521.1105	35	1	1000	2241281.8777	163.8358	 9.2351	10.2528	11.2706	12.2708	0
202	9	5	1	3	443.8018	35	1	1000	2241281.8777	163.8358	12.2884	13.3062	14.3240	15.3241	0
202	9	6	1	3	406.3295	32	1	1000	2241281.8777	163.8358	15.3418	16.3595	17.3774	18.3775	0
202	9	7	1	3	549.0728	35	1	4000	2241281.8777	163.8358	18.4118	22.4329	23.4507	24.4508	0
202	9	8	1	3	403.9027	35	1	4000	2241281.8777	163.8358	24.4685	28.4896	29.5074	30.5075	0
202	9	9	1	3	347.8279	35	1	4000	2241281.8777	163.8358	30.5252	34.5463	35.5641	36.5643	0
202	9	10	1	3	353.6053	35	1	4000	2241281.8777	163.8358	36.5986	40.6197	41.6375	42.6376	0
202	9	11	1	3	624.8205	32	1	4000	2241281.8777	163.8358	42.6552	46.6764	47.6941	48.6943	0
202	9	12	1	3	399.4826	35	0	4000	2241281.8777	163.8358	48.7286	52.7497	53.7675	54.7676	0
202	9	13	1	3	599.2712	35	1	4000	2241281.8777	163.8358	55.5527	59.5739	60.5917	61.5918	0
202	9	14	1	3	414.6757	35	1	4000	2241281.8777	163.8358	61.6094	65.6306	66.6484	67.6486	0
202	9	15	1	3	429.6884	35	1	4000	2241281.8777	163.8358	67.6661	71.6873	72.7051	73.7052	0
202	9	16	1	3	453.1129	32	1	4000	2241281.8777	163.8358	73.7229	77.7440	78.7617	79.7619	0
202	9	17	1	3	395.5540	35	1	4000	2241281.8777	163.8358	79.7962	83.8173	84.8351	85.8353	0
202	9	18	1	3	411.3655	32	1	4000	2241281.8777	163.8358	85.8529	89.8740	90.8918	91.8919	0
202	9	19	1	3	450.1597	32	1	4000	2241281.8777	163.8358	91.9096	95.9307	96.9652	97.9653	0
202	9	20	1	3	393.6342	32	1	4000	2241281.8777	163.8358	97.9829	102.0041	103.0218	104.0220	0
202	9	21	1	3	536.7296	35	1	4000	2241281.8777	163.8358	104.0397	108.0607	109.0785	110.0787	0
202	9	22	1	3	447.2233	32	1	4000	2241281.8777	163.8358	110.1130	114.1341	115.1518	116.1520	0
202	9	23	1	3	431.4959	32	1	4000	2241281.8777	163.8358	116.1697	120.1908	121.2086	122.2087	0
202	9	24	1	3	357.7772	35	1	4000	2241281.8777	163.8358	122.2264	126.2475	127.2820	128.2821	0
202	9	25	1	3	452.9880	32	1	4000	2241281.8777	163.8358	128.2998	132.3208	133.3386	134.3388	0
202	9	26	1	3	436.1322	32	1	4000	2241281.8777	163.8358	134.3564	138.3774	139.3953	140.3954	0
202	9	27	1	3	882.0045	35	1	4000	2241281.8777	163.8358	140.4298	144.4509	145.4687	146.4688	0
202	9	28	1	3	489.6674	35	1	4000	2241281.8777	163.8358	146.4865	150.5076	151.5254	152.5256	0
202	9	29	1	3	544.0279	32	1	4000	2241281.8777	163.8358	152.5432	156.5642	157.5987	158.5989	0
202	9	30	1	3	391.8878	32	1	4000	2241281.8777	163.8358	158.6165	162.6376	163.6554	164.6555	0
202	10	1	1	4	526.8865	32	1	1000	2241927.8698	 0.0039	 0.0352	 1.0691	 2.0867	 3.0894	0
202	10	2	1	4	747.8884	32	1	1000	2241927.8698	 0.0039	 3.1040	 4.1219	 5.1397	 6.1398	0
202	10	3	1	4	478.7631	32	1	1000	2241927.8698	 0.0039	 6.1575	 7.1753	 8.1930	 9.1932	0
202	10	4	1	4	448.7840	32	1	1000	2241927.8698	 0.0039	 9.2108	10.2286	11.2464	12.2465	0
202	10	5	1	4	483.2195	35	1	1000	2241927.8698	 0.0039	12.2809	13.2987	14.3165	15.3166	0
202	10	6	1	4	460.4940	35	1	1000	2241927.8698	 0.0039	15.3509	16.3854	17.4032	18.4034	0
202	10	7	1	4	378.6115	35	1	4000	2241927.8698	 0.0039	18.4210	22.4421	23.4599	24.4600	0
202	10	8	1	4	426.0944	35	1	4000	2241927.8698	 0.0039	24.4777	28.4987	29.5166	30.5167	0
202	10	9	1	4	648.9832	32	1	4000	2241927.8698	 0.0039	30.5510	34.5721	35.5899	36.5900	0
202	10	10	1	4	760.7797	32	1	4000	2241927.8698	 0.0039	36.6077	40.6288	41.6466	42.6468	0
202	10	11	1	4	407.5741	35	1	4000	2241927.8698	 0.0039	42.6811	46.6853	47.7033	48.7035	0
202	10	12	1	4	431.0232	35	1	4000	2241927.8698	 0.0039	48.7211	52.7422	53.7600	54.7601	0
202	10	13	1	4	486.1513	32	1	4000	2241927.8698	 0.0039	54.7777	58.7988	59.8167	60.8169	0
202	10	14	1	4	436.5537	32	1	4000	2241927.8698	 0.0039	60.8511	64.8722	65.8900	66.8902	0
202	10	15	1	4	395.9849	32	1	4000	2241927.8698	 0.0039	66.9078	70.9289	71.9467	72.9469	0
202	10	16	1	4	435.1004	35	1	4000	2241927.8698	 0.0039	72.9812	77.0023	78.0201	79.0202	0
202	10	17	1	4	561.9676	32	1	4000	2241927.8698	 0.0039	79.0379	83.0590	84.0768	85.0769	0
202	10	18	1	4	393.3152	32	1	4000	2241927.8698	 0.0039	85.0946	89.1156	90.1334	91.1336	0
202	10	19	1	4	456.7616	35	1	4000	2241927.8698	 0.0039	91.1679	95.1889	96.2068	97.2070	0
202	10	20	1	4	495.2410	32	1	4000	2241927.8698	 0.0039	97.2246	101.2457	102.2635	103.2636	0
202	10	21	1	4	478.7015	35	1	4000	2241927.8698	 0.0039	103.2980	107.3022	108.3202	109.3204	0
202	10	22	1	4	430.3607	32	1	4000	2241927.8698	 0.0039	109.3380	113.3591	114.3769	115.3770	0
202	10	23	1	4	445.3124	32	1	4000	2241927.8698	 0.0039	115.3946	119.4157	120.4335	121.4337	0
202	10	24	1	4	412.3966	32	1	4000	2241927.8698	 0.0039	121.4680	125.4891	126.5069	127.5070	0
202	10	25	1	4	459.7573	32	1	4000	2241927.8698	 0.0039	127.5247	131.5458	132.5636	133.5637	0
202	10	26	1	4	458.2302	32	1	4000	2241927.8698	 0.0039	133.5981	137.6191	138.6370	139.6371	0
202	10	27	1	4	409.3534	32	1	4000	2241927.8698	 0.0039	139.6547	143.6759	144.6936	145.6938	0
202	10	28	1	4	528.8951	35	1	4000	2241927.8698	 0.0039	145.7114	149.7325	150.7503	151.7504	0
202	10	29	1	4	527.0510	32	1	4000	2241927.8698	 0.0039	151.7848	155.8059	156.8237	157.8239	0
202	10	30	1	4	511.1371	35	1	4000	2241927.8698	 0.0039	157.8415	161.8626	162.8804	163.8805	0
202	11	1	1	4	472.5314	32	1	1000	2241927.8698	163.8843	 0.0112	 1.0288	 2.0466	 3.0467	0
202	11	2	1	4	483.6847	32	1	1000	2241927.8698	163.8843	 3.0644	 4.0821	 5.1000	 6.1001	0
202	11	3	1	4	573.9596	32	1	1000	2241927.8698	163.8843	 6.1178	 7.1355	 8.1533	 9.1535	0
202	11	4	1	4	559.6615	35	1	1000	2241927.8698	163.8843	 9.1711	10.1889	11.2067	12.2068	0
202	11	5	1	4	465.8599	35	1	1000	2241927.8698	163.8843	12.2412	13.2756	14.3101	15.3102	0
202	11	6	1	4	475.7938	35	1	1000	2241927.8698	163.8843	15.3279	16.3457	17.3635	18.3636	0
202	11	7	1	4	394.2081	35	1	4000	2241927.8698	163.8843	18.3813	22.4024	23.4202	24.4203	0
202	11	8	1	4	426.4280	32	1	4000	2241927.8698	163.8843	24.4379	28.4591	29.4936	30.4937	0
202	11	9	1	4	576.3720	32	1	4000	2241927.8698	163.8843	30.5113	34.5324	35.5502	36.5504	0
202	11	10	1	4	431.9849	32	1	4000	2241927.8698	163.8843	36.5680	40.5891	41.6069	42.6071	0
202	11	11	1	4	446.9775	35	1	4000	2241927.8698	163.8843	42.6414	46.6625	47.6803	48.6804	0
202	11	12	1	4	462.7192	35	1	4000	2241927.8698	163.8843	48.6981	52.7192	53.7370	54.7372	0
202	11	13	1	4	398.0835	35	1	4000	2241927.8698	163.8843	54.7547	58.7758	59.7935	60.7937	0
202	11	14	1	4	477.0014	35	1	4000	2241927.8698	163.8843	60.8113	64.8325	65.8502	66.8504	0
202	11	15	1	4	451.6874	32	1	4000	2241927.8698	163.8843	66.8681	70.8892	71.9070	72.9071	0
202	11	16	1	4	434.4657	32	1	4000	2241927.8698	163.8843	72.9415	76.9626	77.9804	78.9805	0
202	11	17	1	4	498.1866	35	1	4000	2241927.8698	163.8843	78.9981	83.0193	84.0371	85.0372	0
202	11	18	1	4	425.8554	32	1	4000	2241927.8698	163.8843	85.0548	89.0759	90.0937	91.0939	0
202	11	19	1	4	488.8110	35	1	4000	2241927.8698	163.8843	91.1115	95.1326	96.1504	97.1505	0
202	11	20	1	4	447.3960	32	1	4000	2241927.8698	163.8843	97.1682	101.1893	102.2071	103.2073	0
202	11	21	1	4	415.0466	35	1	4000	2241927.8698	163.8843	103.2415	107.2627	108.2805	109.2806	0
202	11	22	1	4	453.9017	35	1	4000	2241927.8698	163.8843	109.2983	113.3194	114.3372	115.3373	0
202	11	23	1	4	605.4743	32	1	4000	2241927.8698	163.8843	115.3549	119.3761	120.3938	121.3940	0
202	11	24	1	4	443.8481	35	1	4000	2241927.8698	163.8843	121.4117	125.4327	126.4505	127.4506	0
202	11	25	1	4	419.1357	35	1	4000	2241927.8698	163.8843	127.4683	131.4894	132.5072	133.5074	0
202	11	26	1	4	442.2438	32	1	4000	2241927.8698	163.8843	133.5417	137.5628	138.5806	139.5807	0
202	11	27	1	4	441.6893	35	1	4000	2241927.8698	163.8843	139.5984	143.6195	144.6372	145.6374	0
202	11	28	1	4	441.2611	35	1	4000	2241927.8698	163.8843	145.6550	149.6762	150.6939	151.6941	0
202	11	29	1	4	576.9519	32	1	4000	2241927.8698	163.8843	151.7117	155.7328	156.7506	157.7508	0
202	11	30	1	4	431.9298	35	1	4000	2241927.8698	163.8843	157.7684	161.7895	162.8073	163.8074	0
202	12	1	1	4	683.2355	32	1	1000	2241927.8698	163.8108	 0.0170	 1.0348	 2.0526	 3.0527	0
202	12	2	1	4	438.2376	35	1	1000	2241927.8698	163.8108	 3.0704	 4.0881	 5.1060	 6.1061	0
202	12	3	1	4	632.5057	35	1	1000	2241927.8698	163.8108	 6.1236	 7.1415	 8.1593	 9.1595	0
202	12	4	1	4	434.5694	35	1	1000	2241927.8698	163.8108	 9.1938	10.2116	11.2293	12.2294	0
202	12	5	1	4	428.7923	35	1	1000	2241927.8698	163.8108	12.2638	13.2816	14.2994	15.2995	0
202	12	6	1	4	535.4359	35	1	1000	2241927.8698	163.8108	15.3171	16.3350	17.3528	18.3529	0
202	12	7	1	4	437.1704	35	1	4000	2241927.8698	163.8108	18.3706	22.3916	23.4095	24.4096	0
202	12	8	1	4	468.4021	32	1	4000	2241927.8698	163.8108	24.4440	28.4651	29.4828	30.4830	0
202	12	9	1	4	443.2051	32	1	4000	2241927.8698	163.8108	30.5006	34.5217	35.5395	36.5397	0
202	12	10	1	4	410.1807	35	1	4000	2241927.8698	163.8108	36.5573	40.5784	41.6129	42.6130	0
202	12	11	1	4	432.7946	32	1	4000	2241927.8698	163.8108	42.6474	46.6685	47.6863	48.6864	0
202	12	12	1	4	456.7741	32	1	4000	2241927.8698	163.8108	48.7040	52.7252	53.7430	54.7431	0
202	12	13	1	4	503.4926	32	1	4000	2241927.8698	163.8108	54.7774	58.7985	59.8163	60.8164	0
202	12	14	1	4	414.8295	35	1	4000	2241927.8698	163.8108	60.8341	64.8552	65.8730	66.8732	0
202	12	15	1	4	452.7616	35	1	4000	2241927.8698	163.8108	66.8908	70.9119	71.9464	72.9465	0
202	12	16	1	4	403.9327	35	1	4000	2241927.8698	163.8108	72.9808	77.0019	78.0197	79.0199	0
202	12	17	1	4	459.1353	35	1	4000	2241927.8698	163.8108	79.0375	83.0586	84.0764	85.0765	0
202	12	18	1	4	497.8148	35	1	4000	2241927.8698	163.8108	85.1109	89.1320	90.1498	91.1499	0
202	12	19	1	4	520.4059	35	1	4000	2241927.8698	163.8108	91.1674	95.1887	96.2065	97.2066	0
202	12	20	1	4	567.5722	35	1	4000	2241927.8698	163.8108	97.2242	101.2453	102.2631	103.2633	0
202	12	21	1	4	399.4617	35	1	4000	2241927.8698	163.8108	103.2976	107.3187	108.3365	109.3366	0
202	12	22	1	4	534.9745	32	1	4000	2241927.8698	163.8108	109.3543	113.3754	114.3932	115.3933	0
202	12	23	1	4	532.1516	35	1	4000	2241927.8698	163.8108	115.4277	119.4488	120.4666	121.4667	0
202	12	24	1	4	820.5407	35	1	4000	2241927.8698	163.8108	121.4843	125.5054	126.5232	127.5234	0
202	12	25	1	4	610.9499	32	1	4000	2241927.8698	163.8108	127.5410	131.5621	132.5966	133.5968	0
202	12	26	1	4	426.0992	35	1	4000	2241927.8698	163.8108	133.6310	137.6522	138.6700	139.6701	0
202	12	27	1	4	553.4716	35	1	4000	2241927.8698	163.8108	139.6878	143.7089	144.7266	145.7267	0
202	12	28	1	4	479.6916	35	1	4000	2241927.8698	163.8108	145.7611	149.7822	150.8000	151.8001	0
202	12	29	1	4	462.3446	35	1	4000	2241927.8698	163.8108	151.8178	155.8389	156.8567	157.8568	0
202	12	30	1	4	525.1547	32	1	4000	2241927.8698	163.8108	157.8744	161.8955	162.9301	163.9302	0
202	13	1	1	5	635.2656	35	1	1000	2242627.6141	 0.0038	 0.0151	 1.0490	 2.0666	 3.0693	0
202	13	2	1	5	559.3454	32	1	1000	2242627.6141	 0.0038	 3.1007	 4.1185	 5.1363	 6.1364	0
202	13	3	1	5	408.5095	35	1	1000	2242627.6141	 0.0038	 6.1707	 7.1885	 8.2063	 9.2065	0
202	13	4	1	5	489.5574	32	1	1000	2242627.6141	 0.0038	 9.2408	10.2753	11.2930	12.2932	0
202	13	5	1	5	468.3582	35	1	1000	2242627.6141	 0.0038	12.3108	13.3286	14.3464	15.3466	0
202	13	6	1	5	846.5612	35	1	1000	2242627.6141	 0.0038	15.3642	16.3820	17.3998	18.4000	0
202	13	7	1	5	390.9039	35	1	4000	2242627.6141	 0.0038	18.4175	22.4387	23.4565	24.4566	0
202	13	8	1	5	357.7031	35	1	4000	2242627.6141	 0.0038	24.4908	28.5120	29.5298	30.5300	0
202	13	9	1	5	405.2047	35	1	4000	2242627.6141	 0.0038	30.5476	34.5687	35.5865	36.5866	0
202	13	10	1	5	436.0789	35	1	4000	2242627.6141	 0.0038	36.6043	40.6254	41.6432	42.6433	0
202	13	11	1	5	474.5047	32	1	4000	2242627.6141	 0.0038	42.6610	46.6821	47.6999	48.7000	0
