SUBID	BLOCK	TRIAL	REP	RUNID	RT	RESP	ACC	RSIJIT	EV_START	EV_BLOCK	EV_TRIAL	EV_RETRIEVAL	EV_PROBE	EV_RESP	EV_BLEND
202	1	1	1	1	816.9843	32	0	1000	2239938.9501	 0.0039	 0.0179	 1.0351	 2.0527	 3.0554	0
202	1	2	1	1	 1.0348	32	1	1000	2239938.9501	 0.0039	 3.8544	 4.8722	 5.8898	 6.8899	0
202	1	3	1	1	504.2879	35	1	1000	2239938.9501	 0.0039	 6.9078	 7.9255	 8.9432	 9.9434	0
202	1	4	1	1	457.0710	35	1	1000	2239938.9501	 0.0039	 9.9778	11.0123	12.0467	13.0468	0
202	1	5	1	1	466.4807	35	1	1000	2239938.9501	 0.0039	13.0645	14.0823	15.1001	16.1004	0
202	1	6	1	1	477.4717	32	1	1000	2239938.9501	 0.0039	16.1178	17.1356	18.1535	19.1537	0
202	1	7	1	1	532.3996	32	1	4000	2239938.9501	 0.0039	19.1713	23.1923	24.2102	25.2103	0
202	1	8	1	1	490.7617	32	1	4000	2239938.9501	 0.0039	25.2447	29.2657	30.2835	31.2837	0
202	1	9	1	1	435.4150	32	1	4000	2239938.9501	 0.0039	31.3013	35.3224	36.3402	37.3404	0
202	1	10	1	1	458.9033	35	1	4000	2239938.9501	 0.0039	37.3580	41.3791	42.3969	43.3970	0
202	1	11	1	1	640.7335	32	1	4000	2239938.9501	 0.0039	43.4147	47.4358	48.4536	49.4537	0
202	1	12	1	1	 1.0511	32	0	4000	2239938.9501	 0.0039	49.4714	53.4923	54.5103	55.5104	0
202	1	13	1	1	527.4570	35	1	4000	2239938.9501	 0.0039	56.3290	60.3499	61.3678	62.3680	0
202	1	14	1	1	471.2663	32	1	4000	2239938.9501	 0.0039	62.3856	66.4067	67.4245	68.4247	0
202	1	15	1	1	 1.0504	32	1	4000	2239938.9501	 0.0039	68.4590	72.4801	73.4979	74.4980	0
202	1	16	1	1	396.4420	32	1	4000	2239938.9501	 0.0039	74.5157	78.5367	79.5546	80.5547	0
202	1	17	1	1	516.3762	35	1	4000	2239938.9501	 0.0039	80.5723	84.5934	85.6112	86.6114	0
202	1	18	1	1	538.8422	32	1	4000	2239938.9501	 0.0039	86.6544	90.6668	91.6846	92.6847	0
202	1	19	1	1	466.4733	32	1	4000	2239938.9501	 0.0039	92.7024	96.7235	97.7413	98.7414	0
202	1	20	1	1	416.8624	32	1	4000	2239938.9501	 0.0039	98.7758	102.7969	103.8146	104.8148	0
202	1	21	1	1	471.6023	35	1	4000	2239938.9501	 0.0039	104.8324	108.8535	109.8713	110.8715	0
202	1	22	1	1	431.1232	35	1	4000	2239938.9501	 0.0039	110.8891	114.9102	115.9280	116.9281	0
202	1	23	1	1	429.6016	35	1	4000	2239938.9501	 0.0039	116.9625	120.9836	122.0014	123.0016	0
202	1	24	1	1	436.7171	32	1	4000	2239938.9501	 0.0039	123.0192	127.0403	128.0581	129.0582	0
202	1	25	1	1	411.7752	35	1	4000	2239938.9501	 0.0039	129.0925	133.0968	134.1147	135.1149	0
202	1	26	1	1	675.8412	32	1	4000	2239938.9501	 0.0039	135.1325	139.1536	140.1714	141.1716	0
202	1	27	1	1	402.0217	35	1	4000	2239938.9501	 0.0039	141.1892	145.2103	146.2448	147.2449	0
202	1	28	1	1	425.0957	35	1	4000	2239938.9501	 0.0039	147.2793	151.3004	152.3182	153.3183	0
202	1	29	1	1	440.7931	32	1	4000	2239938.9501	 0.0039	153.3360	157.3571	158.3748	159.3750	0
202	1	30	1	1	415.4862	32	1	4000	2239938.9501	 0.0039	159.4093	163.4305	164.4482	165.4484	0
202	2	1	1	1	496.1165	35	1	1000	2239938.9501	165.4522	 0.0201	 1.0377	 2.0553	 3.0555	0
202	2	2	1	1	474.2110	35	1	1000	2239938.9501	165.4522	 3.0733	 4.0910	 5.1088	 6.1090	0
202	2	3	1	1	484.5099	32	1	1000	2239938.9501	165.4522	 6.1266	 7.1443	 8.1622	 9.1623	0
202	2	4	1	1	453.6387	35	1	1000	2239938.9501	165.4522	 9.1967	10.2311	11.2656	12.2658	0
202	2	5	1	1	438.7681	32	1	1000	2239938.9501	165.4522	12.3001	13.3179	14.3357	15.3358	0
202	2	6	1	1	442.2510	32	1	1000	2239938.9501	165.4522	15.3535	16.3712	17.3890	18.3892	0
202	2	7	1	1	521.3114	35	1	4000	2239938.9501	165.4522	18.4068	22.4279	23.4457	24.4459	0
202	2	8	1	1	479.5489	35	1	4000	2239938.9501	165.4522	24.4801	28.5013	29.5191	30.5192	0
202	2	9	1	1	535.0903	32	1	4000	2239938.9501	165.4522	30.5369	34.5580	35.5758	36.5759	0
202	2	10	1	1	422.4460	35	1	4000	2239938.9501	165.4522	36.5936	40.6147	41.6491	42.6493	0
202	2	11	1	1	548.7754	32	1	4000	2239938.9501	165.4522	42.6669	46.6880	47.7058	48.7059	0
202	2	12	1	1	452.1672	32	1	4000	2239938.9501	165.4522	48.7236	52.7447	53.7625	54.7627	0
202	2	13	1	1	459.2897	32	1	4000	2239938.9501	165.4522	54.7970	58.8181	59.8359	60.8360	0
202	2	14	1	1	506.1691	32	1	4000	2239938.9501	165.4522	60.8537	64.8748	65.8925	66.8927	0
202	2	15	1	1	425.5968	32	1	4000	2239938.9501	165.4522	66.9103	70.9314	71.9659	72.9661	0
202	2	16	1	1	496.0349	32	1	4000	2239938.9501	165.4522	72.9837	77.0048	78.0226	79.0228	0
202	2	17	1	1	560.2007	35	1	4000	2239938.9501	165.4522	79.0404	83.0615	84.0793	85.0794	0
202	2	18	1	1	471.0339	32	1	4000	2239938.9501	165.4522	85.1138	89.1348	90.1526	91.1528	0
202	2	19	1	1	533.7969	32	1	4000	2239938.9501	165.4522	91.1704	95.1915	96.2093	97.2095	0
202	2	20	1	1	539.6853	32	1	4000	2239938.9501	165.4522	97.2271	101.2482	102.2827	103.2829	0
202	2	21	1	1	435.9684	35	1	4000	2239938.9501	165.4522	103.3005	107.3216	108.3394	109.3395	0
202	2	22	1	1	531.5019	32	1	4000	2239938.9501	165.4522	109.3572	113.3782	114.3961	115.3962	0
202	2	23	1	1	497.5993	35	1	4000	2239938.9501	165.4522	115.4306	119.4515	120.4694	121.4696	0
202	2	24	1	1	424.7262	32	1	4000	2239938.9501	165.4522	121.4871	125.5083	126.5261	127.5263	0
202	2	25	1	1	782.9956	32	1	4000	2239938.9501	165.4522	127.5439	131.5650	132.5995	133.5996	0
202	2	26	1	1	463.6426	32	1	4000	2239938.9501	165.4522	133.6173	137.6384	138.6562	139.6563	0
202	2	27	1	1	445.7389	32	1	4000	2239938.9501	165.4522	139.6739	143.6950	144.7128	145.7130	0
202	2	28	1	1	661.2645	32	1	4000	2239938.9501	165.4522	145.7473	149.7684	150.7862	151.7863	0
202	2	29	1	1	523.7771	32	1	4000	2239938.9501	165.4522	151.8040	155.8250	156.8429	157.8430	0
202	2	30	1	1	443.2945	32	1	4000	2239938.9501	165.4522	157.8606	161.8818	162.9163	163.9164	0
202	3	1	1	1	551.0792	35	1	1000	2239938.9501	163.9198	 0.0278	 1.0622	 2.0967	 3.0969	0
202	3	2	1	1	657.7024	32	1	1000	2239938.9501	163.9198	 3.1145	 4.1323	 5.1501	 6.1502	0
202	3	3	1	1	515.7370	35	1	1000	2239938.9501	163.9198	 6.1679	 7.1856	 8.2035	 9.2036	0
202	3	4	1	1	438.3543	35	1	1000	2239938.9501	163.9198	 9.2213	10.2390	11.2568	12.2570	0
202	3	5	1	1	568.9908	32	1	1000	2239938.9501	163.9198	12.2746	13.2924	14.3102	15.3103	0
202	3	6	1	1	457.8110	32	1	1000	2239938.9501	163.9198	15.3446	16.3792	17.4136	18.4138	0
202	3	7	1	1	441.6460	32	1	4000	2239938.9501	163.9198	18.4314	22.4525	23.4703	24.4705	0
202	3	8	1	1	464.4329	32	1	4000	2239938.9501	163.9198	24.4881	28.5092	29.5270	30.5271	0
202	3	9	1	1	422.3229	35	1	4000	2239938.9501	163.9198	30.5615	34.5826	35.6003	36.6004	0
202	3	10	1	1	495.2070	32	1	4000	2239938.9501	163.9198	36.6182	40.6393	41.6570	42.6572	0
202	3	11	1	1	389.2831	32	1	4000	2239938.9501	163.9198	42.6749	46.6959	47.7304	48.7306	0
202	3	12	1	1	 1.0473	32	0	4000	2239938.9501	163.9198	48.7482	52.7693	53.7871	54.7872	0
202	3	13	1	1	 1.0497	32	1	4000	2239938.9501	163.9198	55.5724	59.5934	60.6280	61.6281	0
202	3	14	1	1	417.2978	35	1	4000	2239938.9501	163.9198	61.6625	65.6835	66.7013	67.7015	0
202	3	15	1	1	426.0452	35	1	4000	2239938.9501	163.9198	67.7191	71.7402	72.7580	73.7582	0
202	3	16	1	1	544.4427	32	1	4000	2239938.9501	163.9198	73.7925	77.8136	78.8314	79.8315	0
202	3	17	1	1	454.6300	35	1	4000	2239938.9501	163.9198	79.8492	83.8703	84.8881	85.8882	0
202	3	18	1	1	398.5935	32	1	4000	2239938.9501	163.9198	85.9058	89.9269	90.9448	91.9449	0
202	3	19	1	1	445.8011	32	1	4000	2239938.9501	163.9198	91.9792	96.0003	97.0181	98.0183	0
202	3	20	1	1	452.3247	32	1	4000	2239938.9501	163.9198	98.0359	102.0570	103.0748	104.0750	0
202	3	21	1	1	499.3872	35	1	4000	2239938.9501	163.9198	104.1092	108.1304	109.1482	110.1483	0
202	3	22	1	1	491.0900	35	1	4000	2239938.9501	163.9198	110.1658	114.1871	115.2049	116.2050	0
202	3	23	1	1	409.6012	32	1	4000	2239938.9501	163.9198	116.2227	120.2437	121.2615	122.2617	0
202	3	24	1	1	463.7606	32	1	4000	2239938.9501	163.9198	122.2960	126.3171	127.3349	128.3351	0
202	3	25	1	1	447.5695	35	1	4000	2239938.9501	163.9198	128.3527	132.3738	133.3916	134.3918	0
202	3	26	1	1	446.6051	35	1	4000	2239938.9501	163.9198	134.4261	138.4471	139.4649	140.4651	0
202	3	27	1	1	525.5195	32	1	4000	2239938.9501	163.9198	140.4827	144.5038	145.5216	146.5218	0
202	3	28	1	1	429.4446	32	1	4000	2239938.9501	163.9198	146.5394	150.5605	151.5783	152.5785	0
202	3	29	1	1	460.3647	32	1	4000	2239938.9501	163.9198	152.6128	156.6339	157.6517	158.6518	0
202	3	30	1	1	418.2690	35	1	4000	2239938.9501	163.9198	158.6695	162.6906	163.7084	164.7085	0
SUBID	BLOCK	TRIAL	REP	RUNID	RT	RESP	ACC	RSIJIT	EV_START	EV_BLOCK	EV_TRIAL	EV_RETRIEVAL	EV_PROBE	EV_RESP	EV_BLEND
202	4	1	1	2	465.3298	35	1	1000	2240653.3977	 0.0039	 0.0246	 1.0584	 2.0928	 3.0954	0
202	4	2	1	2	556.7145	35	1	1000	2240653.3977	 0.0039	 3.1268	 4.1613	 5.1791	 6.1793	0
202	4	3	1	2	414.4341	35	1	1000	2240653.3977	 0.0039	 6.1969	 7.2147	 8.2325	 9.2326	0
202	4	4	1	2	408.9878	35	1	1000	2240653.3977	 0.0039	 9.2503	10.2680	11.2858	12.2860	0
202	4	5	1	2	380.3622	35	1	1000	2240653.3977	 0.0039	12.3035	13.3214	14.3392	15.3394	0
202	4	6	1	2	446.4221	35	1	1000	2240653.3977	 0.0039	15.3570	16.3748	17.3926	18.3927	0
202	4	7	1	2	541.1419	35	1	4000	2240653.3977	 0.0039	18.4271	22.4482	23.4659	24.4661	0
202	4	8	1	2	437.6803	32	1	4000	2240653.3977	 0.0039	24.4837	28.5048	29.5226	30.5227	0
202	4	9	1	2	364.1218	35	1	4000	2240653.3977	 0.0039	30.5571	34.5781	35.5960	36.5962	0
202	4	10	1	2	627.2862	32	1	4000	2240653.3977	 0.0039	36.6138	40.6349	41.6527	42.6528	0
202	4	11	1	2	386.0000	35	1	4000	2240653.3977	 0.0039	42.6705	46.6915	47.7093	48.7095	0
202	4	12	1	2	409.5549	32	1	4000	2240653.3977	 0.0039	48.7438	52.7649	53.7827	54.7829	0
202	4	13	1	2	368.3618	35	1	4000	2240653.3977	 0.0039	54.8005	58.8216	59.8394	60.8396	0
202	4	14	1	2	606.8176	35	1	4000	2240653.3977	 0.0039	60.8571	64.8783	65.8961	66.8962	0
202	4	15	1	2	342.2970	35	1	4000	2240653.3977	 0.0039	66.9139	70.9350	71.9528	72.9529	0
202	4	16	1	2	357.9855	35	1	4000	2240653.3977	 0.0039	72.9706	76.9916	78.0095	79.0096	0
202	4	17	1	2	428.3695	35	1	4000	2240653.3977	 0.0039	79.0439	83.0650	84.0829	85.0830	0
202	4	18	1	2	428.7883	32	1	4000	2240653.3977	 0.0039	85.1006	89.1217	90.1395	91.1397	0
202	4	19	1	2	395.3310	35	1	4000	2240653.3977	 0.0039	91.1740	95.1950	96.2129	97.2130	0
202	4	20	1	2	474.4785	35	1	4000	2240653.3977	 0.0039	97.2305	101.2516	102.2695	103.2697	0
202	4	21	1	2	465.6365	32	1	4000	2240653.3977	 0.0039	103.2873	107.3084	108.3262	109.3263	0
202	4	22	1	2	375.2421	32	1	4000	2240653.3977	 0.0039	109.3606	113.3818	114.3995	115.3997	0
202	4	23	1	2	415.4570	35	1	4000	2240653.3977	 0.0039	115.4174	119.4385	120.4563	121.4565	0
202	4	24	1	2	437.1926	32	1	4000	2240653.3977	 0.0039	121.4908	125.5118	126.5296	127.5298	0
202	4	25	1	2	533.1933	32	1	4000	2240653.3977	 0.0039	127.5474	131.5685	132.5863	133.5864	0
202	4	26	1	2	396.8475	32	1	4000	2240653.3977	 0.0039	133.6041	137.6252	138.6430	139.6431	0
202	4	27	1	2	403.3710	35	1	4000	2240653.3977	 0.0039	139.6775	143.6986	144.7164	145.7165	0
202	4	28	1	2	435.0174	35	1	4000	2240653.3977	 0.0039	145.7342	149.7552	150.7731	151.7732	0
202	4	29	1	2	401.3050	35	1	4000	2240653.3977	 0.0039	151.8075	155.8286	156.8464	157.8465	0
202	4	30	1	2	497.1347	32	1	4000	2240653.3977	 0.0039	157.8642	161.8853	162.9031	163.9033	0
202	5	1	1	2	450.0096	32	1	1000	2240653.3977	163.9071	 0.0243	 1.0588	 2.0932	 3.0934	0
202	5	2	1	2	541.4860	35	1	1000	2240653.3977	163.9071	 3.1110	 4.1288	 5.1466	 6.1467	0
202	5	3	1	2	503.5372	35	1	1000	2240653.3977	163.9071	 6.1644	 7.1822	 8.1999	 9.2001	0
202	5	4	1	2	370.6044	35	1	1000	2240653.3977	163.9071	 9.2177	10.2355	11.2533	12.2535	0
202	5	5	1	2	396.9467	32	1	1000	2240653.3977	163.9071	12.2711	13.2889	14.3067	15.3068	0
202	5	6	1	2	533.9297	32	1	1000	2240653.3977	163.9071	15.3412	16.3757	17.4101	18.4103	0
202	5	7	1	2	364.3177	35	1	4000	2240653.3977	163.9071	18.4279	22.4490	23.4668	24.4669	0
202	5	8	1	2	403.1839	35	1	4000	2240653.3977	163.9071	24.4846	28.5056	29.5235	30.5236	0
202	5	9	1	2	378.8887	35	1	4000	2240653.3977	163.9071	30.5580	34.5789	35.5967	36.5969	0
202	5	10	1	2	450.2037	32	1	4000	2240653.3977	163.9071	36.6146	40.6357	41.6535	42.6537	0
202	5	11	1	2	416.9914	32	1	4000	2240653.3977	163.9071	42.6713	46.6924	47.7269	48.7270	0
202	5	12	1	2	423.0979	32	1	4000	2240653.3977	163.9071	48.7447	52.7658	53.7836	54.7837	0
202	5	13	1	2	350.7677	35	1	4000	2240653.3977	163.9071	54.8014	58.8225	59.8402	60.8404	0
202	5	14	1	2	454.1484	35	1	4000	2240653.3977	163.9071	60.8748	64.8958	65.9136	66.9137	0
202	5	15	1	2	404.9421	35	1	4000	2240653.3977	163.9071	66.9314	70.9525	71.9703	72.9705	0
202	5	16	1	2	371.1757	35	1	4000	2240653.3977	163.9071	72.9881	77.0092	78.0437	79.0438	0
202	5	17	1	2	354.6636	35	1	4000	2240653.3977	163.9071	79.0615	83.0826	84.1003	85.1004	0
202	5	18	1	2	370.0168	35	1	4000	2240653.3977	163.9071	85.1181	89.1392	90.1570	91.1572	0
202	5	19	1	2	400.2681	35	1	4000	2240653.3977	163.9071	91.1915	95.2126	96.2304	97.2305	0
202	5	20	1	2	503.6980	32	1	4000	2240653.3977	163.9071	97.2482	101.2693	102.2871	103.2872	0
202	5	21	1	2	358.9282	35	1	4000	2240653.3977	163.9071	103.3049	107.3259	108.3605	109.3606	0
202	5	22	1	2	446.9720	32	1	4000	2240653.3977	163.9071	109.3782	113.3994	114.4171	115.4172	0
202	5	23	1	2	357.6043	35	1	4000	2240653.3977	163.9071	115.4350	119.4560	120.4738	121.4740	0
202	5	24	1	2	451.4943	32	1	4000	2240653.3977	163.9071	121.5083	125.5294	126.5472	127.5473	0
202	5	25	1	2	483.9972	32	1	4000	2240653.3977	163.9071	127.5650	131.5861	132.6038	133.6040	0
202	5	26	1	2	410.4467	35	1	4000	2240653.3977	163.9071	133.6217	137.6427	138.6772	139.6774	0
202	5	27	1	2	370.2495	35	1	4000	2240653.3977	163.9071	139.6950	143.7161	144.7339	145.7340	0
202	5	28	1	2	345.2511	35	1	4000	2240653.3977	163.9071	145.7517	149.7728	150.7906	151.7907	0
202	5	29	1	2	391.9892	35	1	4000	2240653.3977	163.9071	151.8251	155.8462	156.8640	157.8641	0
202	5	30	1	2	415.0858	35	1	4000	2240653.3977	163.9071	157.8818	161.9029	162.9206	163.9207	0
202	6	1	1	2	395.0566	35	1	1000	2240653.3977	163.9242	 0.0245	 1.0423	 2.0601	 3.0603	0
202	6	2	1	2	452.8643	35	0	1000	2240653.3977	163.9242	 3.0779	 4.0955	 5.1135	 6.1136	0
202	6	3	1	2	529.4227	35	1	1000	2240653.3977	163.9242	 6.8988	 7.9165	 8.9343	 9.9344	0
202	6	4	1	2	522.6503	35	1	1000	2240653.3977	163.9242	 9.9522	10.9698	11.9877	12.9879	0
202	6	5	1	2	516.1187	32	1	1000	2240653.3977	163.9242	13.0222	14.0567	15.0911	16.0913	0
202	6	6	1	2	543.2006	32	1	1000	2240653.3977	163.9242	16.1088	17.1267	18.1445	19.1446	0
202	6	7	1	2	397.8473	32	1	4000	2240653.3977	163.9242	19.1622	23.1834	24.2012	25.2013	0
202	6	8	1	2	324.8688	35	1	4000	2240653.3977	163.9242	25.2190	29.2400	30.2746	31.2747	0
202	6	9	1	2	347.8577	35	1	4000	2240653.3977	163.9242	31.2923	35.3135	36.3312	37.3314	0
202	6	10	1	2	419.6125	32	1	4000	2240653.3977	163.9242	37.3490	41.3701	42.3879	43.3881	0
202	6	11	1	2	401.7599	35	0	4000	2240653.3977	163.9242	43.4224	47.4435	48.4612	49.4614	0
202	6	12	1	2	682.3990	35	1	4000	2240653.3977	163.9242	50.2466	54.2677	55.2855	56.2856	0
202	6	13	1	2	463.9297	32	1	4000	2240653.3977	163.9242	56.3200	60.3410	61.3589	62.3590	0
202	6	14	1	2	455.4254	32	1	4000	2240653.3977	163.9242	62.3766	66.3977	67.4155	68.4157	0
202	6	15	1	2	462.5960	32	1	4000	2240653.3977	163.9242	68.4333	72.4544	73.4722	74.4723	0
202	6	16	1	2	420.7643	32	1	4000	2240653.3977	163.9242	74.5067	78.5278	79.5456	80.5457	0
202	6	17	1	2	564.1733	35	1	4000	2240653.3977	163.9242	80.5633	84.5845	85.6022	86.6024	0
202	6	18	1	2	532.0699	32	1	4000	2240653.3977	163.9242	86.6200	90.6411	91.6589	92.6591	0
202	6	19	1	2	451.7772	32	1	4000	2240653.3977	163.9242	92.6767	96.6978	97.7156	98.7158	0
202	6	20	1	2	450.6907	35	1	4000	2240653.3977	163.9242	98.7334	102.7545	103.7723	104.7725	0
202	6	21	1	2	440.8901	32	1	4000	2240653.3977	163.9242	104.8068	108.8279	109.8457	110.8458	0
202	6	22	1	2	496.0858	32	1	4000	2240653.3977	163.9242	110.8635	114.8846	115.9023	116.9025	0
202	6	23	1	2	463.1781	32	1	4000	2240653.3977	163.9242	116.9368	120.9579	121.9757	122.9758	0
202	6	24	1	2	398.6151	32	1	4000	2240653.3977	163.9242	122.9935	127.0146	128.0323	129.0325	0
202	6	25	1	2	477.3159	35	1	4000	2240653.3977	163.9242	129.0502	133.0713	134.0891	135.0892	0
202	6	26	1	2	444.8704	35	1	4000	2240653.3977	163.9242	135.1236	139.1445	140.1624	141.1626	0
202	6	27	1	2	467.6108	32	1	4000	2240653.3977	163.9242	141.1803	145.2013	146.2191	147.2193	0
202	6	28	1	2	418.9206	35	1	4000	2240653.3977	163.9242	147.2369	151.2580	152.2758	153.2759	0
202	6	29	1	2	490.3333	32	1	4000	2240653.3977	163.9242	153.2936	157.3147	158.3325	159.3327	0
202	6	30	1	2	409.9827	35	1	4000	2240653.3977	163.9242	159.3503	163.3713	164.3892	165.3893	0
SUBID	BLOCK	TRIAL	REP	RUNID	RT	RESP	ACC	RSIJIT	EV_START	EV_BLOCK	EV_TRIAL	EV_RETRIEVAL	EV_PROBE	EV_RESP	EV_BLEND
202	7	1	1	3	503.2396	35	1	1000	2241281.8777	 0.0040	 0.0268	 1.0607	 2.0784	 3.0811	0
202	7	2	1	3	619.5711	32	1	1000	2241281.8777	 0.0040	 3.1124	 4.1302	 5.1481	 6.1482	0
202	7	3	1	3	534.3634	35	1	1000	2241281.8777	 0.0040	 6.1658	 7.1836	 8.2014	 9.2015	0
202	7	4	1	3	567.1345	32	1	1000	2241281.8777	 0.0040	 9.2359	10.2703	11.2881	12.2883	0
202	7	5	1	3	506.0002	35	1	1000	2241281.8777	 0.0040	12.3059	13.3237	14.3415	15.3417	0
202	7	6	1	3	469.2295	32	1	1000	2241281.8777	 0.0040	15.3592	16.3771	17.3949	18.3950	0
202	7	7	1	3	491.5478	35	1	4000	2241281.8777	 0.0040	18.4127	22.4337	23.4516	24.4517	0
202	7	8	1	3	442.9555	35	1	4000	2241281.8777	 0.0040	24.4860	28.5071	29.5249	30.5250	0
202	7	9	1	3	434.6083	32	1	4000	2241281.8777	 0.0040	30.5428	34.5638	35.5816	36.5817	0
202	7	10	1	3	497.0642	35	1	4000	2241281.8777	 0.0040	36.5994	40.6205	41.6383	42.6385	0
202	7	11	1	3	408.1721	32	1	4000	2241281.8777	 0.0040	42.6561	46.6772	47.6948	48.6950	0
202	7	12	1	3	472.2669	35	1	4000	2241281.8777	 0.0040	48.7127	52.7338	53.7516	54.7518	0
202	7	13	1	3	390.3365	35	1	4000	2241281.8777	 0.0040	54.7861	58.8072	59.8250	60.8252	0
202	7	14	1	3	414.3877	35	1	4000	2241281.8777	 0.0040	60.8428	64.8639	65.8817	66.8818	0
202	7	15	1	3	436.9302	35	1	4000	2241281.8777	 0.0040	66.8995	70.9206	71.9384	72.9385	0
202	7	16	1	3	443.6922	35	1	4000	2241281.8777	 0.0040	72.9562	76.9773	77.9951	78.9952	0
202	7	17	1	3	483.9597	32	1	4000	2241281.8777	 0.0040	79.0127	83.0339	84.0517	85.0519	0
202	7	18	1	3	362.4365	35	1	4000	2241281.8777	 0.0040	85.0862	89.1072	90.1251	91.1252	0
202	7	19	1	3	457.4281	32	1	4000	2241281.8777	 0.0040	91.1429	95.1640	96.1818	97.1820	0
202	7	20	1	3	416.7741	35	1	4000	2241281.8777	 0.0040	97.1995	101.2207	102.2385	103.2386	0
202	7	21	1	3	383.5636	32	1	4000	2241281.8777	 0.0040	103.2563	107.2773	108.2952	109.2953	0
202	7	22	1	3	447.1663	32	1	4000	2241281.8777	 0.0040	109.3129	113.3341	114.3518	115.3520	0
202	7	23	1	3	701.5504	35	1	4000	2241281.8777	 0.0040	115.3863	119.4074	120.4252	121.4254	0
202	7	24	1	3	518.1270	32	1	4000	2241281.8777	 0.0040	121.4430	125.4641	126.4819	127.4820	0
202	7	25	1	3	396.6844	32	1	4000	2241281.8777	 0.0040	127.5164	131.5374	132.5552	133.5554	0
202	7	26	1	3	523.2851	35	1	4000	2241281.8777	 0.0040	133.5730	137.5941	138.6119	139.6121	0
202	7	27	1	3	490.7880	32	1	4000	2241281.8777	 0.0040	139.6297	143.6507	144.6686	145.6687	0
202	7	28	1	3	385.9939	35	1	4000	2241281.8777	 0.0040	145.7031	149.7242	150.7420	151.7421	0
202	7	29	1	3	385.3935	32	0	4000	2241281.8777	 0.0040	151.7598	155.7809	156.7987	157.7988	0
202	7	30	1	3	615.4723	32	1	4000	2241281.8777	 0.0040	158.6173	162.6383	163.6562	164.6563	0
202	8	1	1	3	480.4793	35	1	1000	2241281.8777	164.6602	 0.0192	 1.0370	 2.0548	 3.0549	0
202	8	2	1	3	971.8116	32	1	1000	2241281.8777	164.6602	 3.0725	 4.0903	 5.1081	 6.1083	0
202	8	3	1	3	484.7341	32	1	1000	2241281.8777	164.6602	 6.1427	 7.1771	 8.2114	 9.2116	0
202	8	4	1	3	414.2023	35	1	1000	2241281.8777	164.6602	 9.2294	10.2471	11.2649	12.2651	0
202	8	5	1	3	425.7711	32	1	1000	2241281.8777	164.6602	12.2827	13.3005	14.3183	15.3184	0
202	8	6	1	3	428.2781	32	1	1000	2241281.8777	164.6602	15.3360	16.3539	17.3717	18.3718	0
202	8	7	1	3	410.9169	35	1	4000	2241281.8777	164.6602	18.3895	22.4106	23.4284	24.4285	0
202	8	8	1	3	426.4280	35	1	4000	2241281.8777	164.6602	24.4461	28.4673	29.4850	30.4851	0
202	8	9	1	3	537.9089	32	1	4000	2241281.8777	164.6602	30.5028	34.5239	35.5417	36.5419	0
202	8	10	1	3	416.5423	32	1	4000	2241281.8777	164.6602	36.5762	40.5972	41.6151	42.6152	0
202	8	11	1	3	479.2010	35	1	4000	2241281.8777	164.6602	42.6329	46.6539	47.6718	48.6719	0
202	8	12	1	3	494.3733	35	1	4000	2241281.8777	164.6602	48.6896	52.7106	53.7285	54.7286	0
202	8	13	1	3	374.4513	35	1	4000	2241281.8777	164.6602	54.7462	58.7673	59.7851	60.7853	0
202	8	14	1	3	429.9884	32	1	4000	2241281.8777	164.6602	60.8029	64.8240	65.8418	66.8420	0
202	8	15	1	3	419.6689	32	1	4000	2241281.8777	164.6602	66.8763	70.8974	71.9152	72.9154	0
202	8	16	1	3	346.6267	35	1	4000	2241281.8777	164.6602	72.9330	76.9541	77.9719	78.9720	0
202	8	17	1	3	387.6016	35	1	4000	2241281.8777	164.6602	78.9897	83.0108	84.0286	85.0287	0
202	8	18	1	3	449.9307	35	1	4000	2241281.8777	164.6602	85.0463	89.0674	90.0852	91.0854	0
202	8	19	1	3	384.3824	35	1	4000	2241281.8777	164.6602	91.1030	95.1241	96.1419	97.1420	0
202	8	20	1	3	384.9093	35	1	4000	2241281.8777	164.6602	97.1764	101.1975	102.2153	103.2154	0
202	8	21	1	3	415.5369	32	1	4000	2241281.8777	164.6602	103.2331	107.2542	108.2720	109.2721	0
202	8	22	1	3	430.1015	35	1	4000	2241281.8777	164.6602	109.2897	113.3108	114.3286	115.3287	0
202	8	23	1	3	493.4593	32	1	4000	2241281.8777	164.6602	115.3464	119.3675	120.3853	121.3854	0
202	8	24	1	3	429.6508	32	1	4000	2241281.8777	164.6602	121.4031	125.4243	126.4420	127.4421	0
202	8	25	1	3	419.2801	35	1	4000	2241281.8777	164.6602	127.4765	131.4976	132.5154	133.5155	0
202	8	26	1	3	387.6928	35	1	4000	2241281.8777	164.6602	133.5332	137.5543	138.5721	139.5722	0
202	8	27	1	3	529.0961	35	1	4000	2241281.8777	164.6602	139.6065	143.6276	144.6454	145.6456	0
202	8	28	1	3	440.3348	32	1	4000	2241281.8777	164.6602	145.6632	149.6843	150.7021	151.7022	0
202	8	29	1	3	400.8773	35	1	4000	2241281.8777	164.6602	151.7198	155.7410	156.7588	157.7590	0
202	8	30	1	3	487.5788	32	1	4000	2241281.8777	164.6602	157.7932	161.8144	162.8322	163.8323	0
202	9	1	1	3	698.5001	32	1	1000	2241281.8777	163.8358	 0.0250	 1.0427	 2.0605	 3.0606	0
202	9	2	1	3	468.8871	35	1	1000	2241281.8777	163.8358	 3.0949	 4.1127	 5.1472	 6.1473	0
202	9	3	1	3	445.8831	35	1	1000	2241281.8777	163.8358	 6.1817	 7.1994	 8.2172	 9.2174	0
202	9	4	1	3	521.1105	35	1	1000	2241281.8777	163.8358	 9.2351	10.2528	11.2706	12.2708	0
202	9	5	1	3	443.8018	35	1	1000	2241281.8777	163.8358	12.2884	13.3062	14.3240	15.3241	0
202	9	6	1	3	406.3295	32	1	1000	2241281.8777	163.8358	15.3418	16.3595	17.3774	18.3775	0
202	9	7	1	3	549.0728	35	1	4000	2241281.8777	163.8358	18.4118	22.4329	23.4507	24.4508	0
202	9	8	1	3	403.9027	35	1	4000	2241281.8777	163.8358	24.4685	28.4896	29.5074	30.5075	0
202	9	9	1	3	347.8279	35	1	4000	2241281.8777	163.8358	30.5252	34.5463	35.5641	36.5643	0
202	9	10	1	3	353.6053	35	1	4000	2241281.8777	163.8358	36.5986	40.6197	41.6375	42.6376	0
202	9	11	1	3	624.8205	32	1	4000	2241281.8777	163.8358	42.6552	46.6764	47.6941	48.6943	0
202	9	12	1	3	399.4826	35	0	4000	2241281.8777	163.8358	48.7286	52.7497	53.7675	54.7676	0
202	9	13	1	3	599.2712	35	1	4000	2241281.8777	163.8358	55.5527	59.5739	60.5917	61.5918	0
202	9	14	1	3	414.6757	35	1	4000	2241281.8777	163.8358	61.6094	65.6306	66.6484	67.6486	0
202	9	15	1	3	429.6884	35	1	4000	2241281.8777	163.8358	67.6661	71.6873	72.7051	73.7052	0
202	9	16	1	3	453.1129	32	1	4000	2241281.8777	163.8358	73.7229	77.7440	78.7617	79.7619	0
202	9	17	1	3	395.5540	35	1	4000	2241281.8777	163.8358	79.7962	83.8173	84.8351	85.8353	0
202	9	18	1	3	411.3655	32	1	4000	2241281.8777	163.8358	85.8529	89.8740	90.8918	91.8919	0
202	9	19	1	3	450.1597	32	1	4000	2241281.8777	163.8358	91.9096	95.9307	96.9652	97.9653	0
202	9	20	1	3	393.6342	32	1	4000	2241281.8777	163.8358	97.9829	102.0041	103.0218	104.0220	0
202	9	21	1	3	536.7296	35	1	4000	2241281.8777	163.8358	104.0397	108.0607	109.0785	110.0787	0
202	9	22	1	3	447.2233	32	1	4000	2241281.8777	163.8358	110.1130	114.1341	115.1518	116.1520	0
202	9	23	1	3	431.4959	32	1	4000	2241281.8777	163.8358	116.1697	120.1908	121.2086	122.2087	0
202	9	24	1	3	357.7772	35	1	4000	2241281.8777	163.8358	122.2264	126.2475	127.2820	128.2821	0
202	9	25	1	3	452.9880	32	1	4000	2241281.8777	163.8358	128.2998	132.3208	133.3386	134.3388	0
202	9	26	1	3	436.1322	32	1	4000	2241281.8777	163.8358	134.3564	138.3774	139.3953	140.3954	0
202	9	27	1	3	882.0045	35	1	4000	2241281.8777	163.8358	140.4298	144.4509	145.4687	146.4688	0
202	9	28	1	3	489.6674	35	1	4000	2241281.8777	163.8358	146.4865	150.5076	151.5254	152.5256	0
202	9	29	1	3	544.0279	32	1	4000	2241281.8777	163.8358	152.5432	156.5642	157.5987	158.5989	0
202	9	30	1	3	391.8878	32	1	4000	2241281.8777	163.8358	158.6165	162.6376	163.6554	164.6555	0
SUBID	BLOCK	TRIAL	REP	RUNID	RT	RESP	ACC	RSIJIT	EV_START	EV_BLOCK	EV_TRIAL	EV_RETRIEVAL	EV_PROBE	EV_RESP	EV_BLEND
202	10	1	1	4	526.8865	32	1	1000	2241927.8698	 0.0039	 0.0352	 1.0691	 2.0867	 3.0894	0
202	10	2	1	4	747.8884	32	1	1000	2241927.8698	 0.0039	 3.1040	 4.1219	 5.1397	 6.1398	0
202	10	3	1	4	478.7631	32	1	1000	2241927.8698	 0.0039	 6.1575	 7.1753	 8.1930	 9.1932	0
202	10	4	1	4	448.7840	32	1	1000	2241927.8698	 0.0039	 9.2108	10.2286	11.2464	12.2465	0
202	10	5	1	4	483.2195	35	1	1000	2241927.8698	 0.0039	12.2809	13.2987	14.3165	15.3166	0
202	10	6	1	4	460.4940	35	1	1000	2241927.8698	 0.0039	15.3509	16.3854	17.4032	18.4034	0
202	10	7	1	4	378.6115	35	1	4000	2241927.8698	 0.0039	18.4210	22.4421	23.4599	24.4600	0
202	10	8	1	4	426.0944	35	1	4000	2241927.8698	 0.0039	24.4777	28.4987	29.5166	30.5167	0
202	10	9	1	4	648.9832	32	1	4000	2241927.8698	 0.0039	30.5510	34.5721	35.5899	36.5900	0
202	10	10	1	4	760.7797	32	1	4000	2241927.8698	 0.0039	36.6077	40.6288	41.6466	42.6468	0
202	10	11	1	4	407.5741	35	1	4000	2241927.8698	 0.0039	42.6811	46.6853	47.7033	48.7035	0
202	10	12	1	4	431.0232	35	1	4000	2241927.8698	 0.0039	48.7211	52.7422	53.7600	54.7601	0
202	10	13	1	4	486.1513	32	1	4000	2241927.8698	 0.0039	54.7777	58.7988	59.8167	60.8169	0
202	10	14	1	4	436.5537	32	1	4000	2241927.8698	 0.0039	60.8511	64.8722	65.8900	66.8902	0
202	10	15	1	4	395.9849	32	1	4000	2241927.8698	 0.0039	66.9078	70.9289	71.9467	72.9469	0
202	10	16	1	4	435.1004	35	1	4000	2241927.8698	 0.0039	72.9812	77.0023	78.0201	79.0202	0
202	10	17	1	4	561.9676	32	1	4000	2241927.8698	 0.0039	79.0379	83.0590	84.0768	85.0769	0
202	10	18	1	4	393.3152	32	1	4000	2241927.8698	 0.0039	85.0946	89.1156	90.1334	91.1336	0
202	10	19	1	4	456.7616	35	1	4000	2241927.8698	 0.0039	91.1679	95.1889	96.2068	97.2070	0
202	10	20	1	4	495.2410	32	1	4000	2241927.8698	 0.0039	97.2246	101.2457	102.2635	103.2636	0
202	10	21	1	4	478.7015	35	1	4000	2241927.8698	 0.0039	103.2980	107.3022	108.3202	109.3204	0
202	10	22	1	4	430.3607	32	1	4000	2241927.8698	 0.0039	109.3380	113.3591	114.3769	115.3770	0
202	10	23	1	4	445.3124	32	1	4000	2241927.8698	 0.0039	115.3946	119.4157	120.4335	121.4337	0
202	10	24	1	4	412.3966	32	1	4000	2241927.8698	 0.0039	121.4680	125.4891	126.5069	127.5070	0
202	10	25	1	4	459.7573	32	1	4000	2241927.8698	 0.0039	127.5247	131.5458	132.5636	133.5637	0
202	10	26	1	4	458.2302	32	1	4000	2241927.8698	 0.0039	133.5981	137.6191	138.6370	139.6371	0
202	10	27	1	4	409.3534	32	1	4000	2241927.8698	 0.0039	139.6547	143.6759	144.6936	145.6938	0
202	10	28	1	4	528.8951	35	1	4000	2241927.8698	 0.0039	145.7114	149.7325	150.7503	151.7504	0
202	10	29	1	4	527.0510	32	1	4000	2241927.8698	 0.0039	151.7848	155.8059	156.8237	157.8239	0
202	10	30	1	4	511.1371	35	1	4000	2241927.8698	 0.0039	157.8415	161.8626	162.8804	163.8805	0
202	11	1	1	4	472.5314	32	1	1000	2241927.8698	163.8843	 0.0112	 1.0288	 2.0466	 3.0467	0
202	11	2	1	4	483.6847	32	1	1000	2241927.8698	163.8843	 3.0644	 4.0821	 5.1000	 6.1001	0
202	11	3	1	4	573.9596	32	1	1000	2241927.8698	163.8843	 6.1178	 7.1355	 8.1533	 9.1535	0
202	11	4	1	4	559.6615	35	1	1000	2241927.8698	163.8843	 9.1711	10.1889	11.2067	12.2068	0
202	11	5	1	4	465.8599	35	1	1000	2241927.8698	163.8843	12.2412	13.2756	14.3101	15.3102	0
202	11	6	1	4	475.7938	35	1	1000	2241927.8698	163.8843	15.3279	16.3457	17.3635	18.3636	0
202	11	7	1	4	394.2081	35	1	4000	2241927.8698	163.8843	18.3813	22.4024	23.4202	24.4203	0
202	11	8	1	4	426.4280	32	1	4000	2241927.8698	163.8843	24.4379	28.4591	29.4936	30.4937	0
202	11	9	1	4	576.3720	32	1	4000	2241927.8698	163.8843	30.5113	34.5324	35.5502	36.5504	0
202	11	10	1	4	431.9849	32	1	4000	2241927.8698	163.8843	36.5680	40.5891	41.6069	42.6071	0
202	11	11	1	4	446.9775	35	1	4000	2241927.8698	163.8843	42.6414	46.6625	47.6803	48.6804	0
202	11	12	1	4	462.7192	35	1	4000	2241927.8698	163.8843	48.6981	52.7192	53.7370	54.7372	0
202	11	13	1	4	398.0835	35	1	4000	2241927.8698	163.8843	54.7547	58.7758	59.7935	60.7937	0
202	11	14	1	4	477.0014	35	1	4000	2241927.8698	163.8843	60.8113	64.8325	65.8502	66.8504	0
202	11	15	1	4	451.6874	32	1	4000	2241927.8698	163.8843	66.8681	70.8892	71.9070	72.9071	0
202	11	16	1	4	434.4657	32	1	4000	2241927.8698	163.8843	72.9415	76.9626	77.9804	78.9805	0
202	11	17	1	4	498.1866	35	1	4000	2241927.8698	163.8843	78.9981	83.0193	84.0371	85.0372	0
202	11	18	1	4	425.8554	32	1	4000	2241927.8698	163.8843	85.0548	89.0759	90.0937	91.0939	0
202	11	19	1	4	488.8110	35	1	4000	2241927.8698	163.8843	91.1115	95.1326	96.1504	97.1505	0
202	11	20	1	4	447.3960	32	1	4000	2241927.8698	163.8843	97.1682	101.1893	102.2071	103.2073	0
202	11	21	1	4	415.0466	35	1	4000	2241927.8698	163.8843	103.2415	107.2627	108.2805	109.2806	0
202	11	22	1	4	453.9017	35	1	4000	2241927.8698	163.8843	109.2983	113.3194	114.3372	115.3373	0
202	11	23	1	4	605.4743	32	1	4000	2241927.8698	163.8843	115.3549	119.3761	120.3938	121.3940	0
202	11	24	1	4	443.8481	35	1	4000	2241927.8698	163.8843	121.4117	125.4327	126.4505	127.4506	0
202	11	25	1	4	419.1357	35	1	4000	2241927.8698	163.8843	127.4683	131.4894	132.5072	133.5074	0
202	11	26	1	4	442.2438	32	1	4000	2241927.8698	163.8843	133.5417	137.5628	138.5806	139.5807	0
202	11	27	1	4	441.6893	35	1	4000	2241927.8698	163.8843	139.5984	143.6195	144.6372	145.6374	0
202	11	28	1	4	441.2611	35	1	4000	2241927.8698	163.8843	145.6550	149.6762	150.6939	151.6941	0
202	11	29	1	4	576.9519	32	1	4000	2241927.8698	163.8843	151.7117	155.7328	156.7506	157.7508	0
202	11	30	1	4	431.9298	35	1	4000	2241927.8698	163.8843	157.7684	161.7895	162.8073	163.8074	0
202	12	1	1	4	683.2355	32	1	1000	2241927.8698	163.8108	 0.0170	 1.0348	 2.0526	 3.0527	0
202	12	2	1	4	438.2376	35	1	1000	2241927.8698	163.8108	 3.0704	 4.0881	 5.1060	 6.1061	0
202	12	3	1	4	632.5057	35	1	1000	2241927.8698	163.8108	 6.1236	 7.1415	 8.1593	 9.1595	0
202	12	4	1	4	434.5694	35	1	1000	2241927.8698	163.8108	 9.1938	10.2116	11.2293	12.2294	0
202	12	5	1	4	428.7923	35	1	1000	2241927.8698	163.8108	12.2638	13.2816	14.2994	15.2995	0
202	12	6	1	4	535.4359	35	1	1000	2241927.8698	163.8108	15.3171	16.3350	17.3528	18.3529	0
202	12	7	1	4	437.1704	35	1	4000	2241927.8698	163.8108	18.3706	22.3916	23.4095	24.4096	0
202	12	8	1	4	468.4021	32	1	4000	2241927.8698	163.8108	24.4440	28.4651	29.4828	30.4830	0
202	12	9	1	4	443.2051	32	1	4000	2241927.8698	163.8108	30.5006	34.5217	35.5395	36.5397	0
202	12	10	1	4	410.1807	35	1	4000	2241927.8698	163.8108	36.5573	40.5784	41.6129	42.6130	0
202	12	11	1	4	432.7946	32	1	4000	2241927.8698	163.8108	42.6474	46.6685	47.6863	48.6864	0
202	12	12	1	4	456.7741	32	1	4000	2241927.8698	163.8108	48.7040	52.7252	53.7430	54.7431	0
202	12	13	1	4	503.4926	32	1	4000	2241927.8698	163.8108	54.7774	58.7985	59.8163	60.8164	0
202	12	14	1	4	414.8295	35	1	4000	2241927.8698	163.8108	60.8341	64.8552	65.8730	66.8732	0
202	12	15	1	4	452.7616	35	1	4000	2241927.8698	163.8108	66.8908	70.9119	71.9464	72.9465	0
202	12	16	1	4	403.9327	35	1	4000	2241927.8698	163.8108	72.9808	77.0019	78.0197	79.0199	0
202	12	17	1	4	459.1353	35	1	4000	2241927.8698	163.8108	79.0375	83.0586	84.0764	85.0765	0
202	12	18	1	4	497.8148	35	1	4000	2241927.8698	163.8108	85.1109	89.1320	90.1498	91.1499	0
202	12	19	1	4	520.4059	35	1	4000	2241927.8698	163.8108	91.1674	95.1887	96.2065	97.2066	0
202	12	20	1	4	567.5722	35	1	4000	2241927.8698	163.8108	97.2242	101.2453	102.2631	103.2633	0
202	12	21	1	4	399.4617	35	1	4000	2241927.8698	163.8108	103.2976	107.3187	108.3365	109.3366	0
202	12	22	1	4	534.9745	32	1	4000	2241927.8698	163.8108	109.3543	113.3754	114.3932	115.3933	0
202	12	23	1	4	532.1516	35	1	4000	2241927.8698	163.8108	115.4277	119.4488	120.4666	121.4667	0
202	12	24	1	4	820.5407	35	1	4000	2241927.8698	163.8108	121.4843	125.5054	126.5232	127.5234	0
202	12	25	1	4	610.9499	32	1	4000	2241927.8698	163.8108	127.5410	131.5621	132.5966	133.5968	0
202	12	26	1	4	426.0992	35	1	4000	2241927.8698	163.8108	133.6310	137.6522	138.6700	139.6701	0
202	12	27	1	4	553.4716	35	1	4000	2241927.8698	163.8108	139.6878	143.7089	144.7266	145.7267	0
202	12	28	1	4	479.6916	35	1	4000	2241927.8698	163.8108	145.7611	149.7822	150.8000	151.8001	0
202	12	29	1	4	462.3446	35	1	4000	2241927.8698	163.8108	151.8178	155.8389	156.8567	157.8568	0
202	12	30	1	4	525.1547	32	1	4000	2241927.8698	163.8108	157.8744	161.8955	162.9301	163.9302	0
SUBID	BLOCK	TRIAL	REP	RUNID	RT	RESP	ACC	RSIJIT	EV_START	EV_BLOCK	EV_TRIAL	EV_RETRIEVAL	EV_PROBE	EV_RESP	EV_BLEND
202	13	1	1	5	635.2656	35	1	1000	2242627.6141	 0.0038	 0.0151	 1.0490	 2.0666	 3.0693	0
202	13	2	1	5	559.3454	32	1	1000	2242627.6141	 0.0038	 3.1007	 4.1185	 5.1363	 6.1364	0
202	13	3	1	5	408.5095	35	1	1000	2242627.6141	 0.0038	 6.1707	 7.1885	 8.2063	 9.2065	0
202	13	4	1	5	489.5574	32	1	1000	2242627.6141	 0.0038	 9.2408	10.2753	11.2930	12.2932	0
202	13	5	1	5	468.3582	35	1	1000	2242627.6141	 0.0038	12.3108	13.3286	14.3464	15.3466	0
202	13	6	1	5	846.5612	35	1	1000	2242627.6141	 0.0038	15.3642	16.3820	17.3998	18.4000	0
202	13	7	1	5	390.9039	35	1	4000	2242627.6141	 0.0038	18.4175	22.4387	23.4565	24.4566	0
202	13	8	1	5	357.7031	35	1	4000	2242627.6141	 0.0038	24.4908	28.5120	29.5298	30.5300	0
202	13	9	1	5	405.2047	35	1	4000	2242627.6141	 0.0038	30.5476	34.5687	35.5865	36.5866	0
202	13	10	1	5	436.0789	35	1	4000	2242627.6141	 0.0038	36.6043	40.6254	41.6432	42.6433	0
202	13	11	1	5	474.5047	32	1	4000	2242627.6141	 0.0038	42.6610	46.6821	47.6999	48.7000	0
202	13	12	1	5	571.2614	32	1	4000	2242627.6141	 0.0038	48.7177	52.7387	53.7566	54.7568	0
202	13	13	1	5	561.9736	35	1	4000	2242627.6141	 0.0038	54.7909	58.8121	59.8299	60.8301	0
202	13	14	1	5	409.2595	35	1	4000	2242627.6141	 0.0038	60.8477	64.8688	65.8866	66.8868	0
202	13	15	1	5	463.2269	32	1	4000	2242627.6141	 0.0038	66.9211	70.9422	71.9600	72.9602	0
202	13	16	1	5	430.4795	35	1	4000	2242627.6141	 0.0038	72.9778	76.9989	78.0167	79.0169	0
202	13	17	1	5	654.1151	32	1	4000	2242627.6141	 0.0038	79.0345	83.0556	84.0733	85.0735	0
202	13	18	1	5	484.1941	32	1	4000	2242627.6141	 0.0038	85.1078	89.1289	90.1467	91.1468	0
202	13	19	1	5	459.1278	32	1	4000	2242627.6141	 0.0038	91.1645	95.1855	96.2034	97.2035	0
202	13	20	1	5	539.0655	35	1	4000	2242627.6141	 0.0038	97.2211	101.2422	102.2601	103.2603	0
202	13	21	1	5	626.5249	32	1	4000	2242627.6141	 0.0038	103.2779	107.2990	108.3168	109.3169	0
202	13	22	1	5	578.4487	35	1	4000	2242627.6141	 0.0038	109.3346	113.3557	114.3734	115.3736	0
202	13	23	1	5	408.2047	35	1	4000	2242627.6141	 0.0038	115.4079	119.4290	120.4468	121.4469	0
202	13	24	1	5	423.6812	35	1	4000	2242627.6141	 0.0038	121.4646	125.4857	126.5034	127.5035	0
202	13	25	1	5	447.0264	35	1	4000	2242627.6141	 0.0038	127.5380	131.5591	132.5769	133.5771	0
202	13	26	1	5	477.4391	32	1	4000	2242627.6141	 0.0038	133.5945	137.6158	138.6335	139.6337	0
202	13	27	1	5	412.6178	35	1	4000	2242627.6141	 0.0038	139.6513	143.6724	144.6902	145.6903	0
202	13	28	1	5	426.9217	32	1	4000	2242627.6141	 0.0038	145.7247	149.7456	150.7636	151.7637	0
202	13	29	1	5	474.6193	35	1	4000	2242627.6141	 0.0038	151.7814	155.8025	156.8203	157.8205	0
202	13	30	1	5	521.9765	32	1	4000	2242627.6141	 0.0038	157.8379	161.8592	162.8770	163.8771	0
202	14	1	1	5	717.2286	32	1	1000	2242627.6141	163.8810	 0.0231	 1.0408	 2.0586	 3.0588	0
202	14	2	1	5	623.8345	32	1	1000	2242627.6141	163.8810	 3.0763	 4.0942	 5.1120	 6.1121	0
202	14	3	1	5	442.0963	32	1	1000	2242627.6141	163.8810	 6.1298	 7.1476	 8.1654	 9.1655	0
202	14	4	1	5	547.3594	35	1	1000	2242627.6141	163.8810	 9.1998	10.2343	11.2521	12.2522	0
202	14	5	1	5	486.6597	32	1	1000	2242627.6141	163.8810	12.2699	13.2877	14.3055	15.3056	0
202	14	6	1	5	873.1260	35	1	1000	2242627.6141	163.8810	15.3233	16.3411	17.3588	18.3590	0
202	14	7	1	5	519.5264	35	1	4000	2242627.6141	163.8810	18.3766	22.3977	23.4155	24.4157	0
202	14	8	1	5	494.6484	32	1	4000	2242627.6141	163.8810	24.4500	28.4711	29.4889	30.4890	0
202	14	9	1	5	413.7752	32	1	4000	2242627.6141	163.8810	30.5067	34.5277	35.5455	36.5457	0
202	14	10	1	5	436.6468	32	1	4000	2242627.6141	163.8810	36.5801	40.6010	41.6189	42.6190	0
202	14	11	1	5	668.1948	35	1	4000	2242627.6141	163.8810	42.6366	46.6578	47.6756	48.6757	0
202	14	12	1	5	443.4634	35	1	4000	2242627.6141	163.8810	48.6934	52.7145	53.7323	54.7324	0
202	14	13	1	5	497.1563	32	1	4000	2242627.6141	163.8810	54.7668	58.7879	59.8057	60.8058	0
202	14	14	1	5	425.3434	35	1	4000	2242627.6141	163.8810	60.8235	64.8446	65.8624	66.8625	0
202	14	15	1	5	552.2591	35	1	4000	2242627.6141	163.8810	66.8968	70.9012	71.9190	72.9192	0
202	14	16	1	5	463.4054	32	1	4000	2242627.6141	163.8810	72.9368	76.9579	77.9757	78.9759	0
202	14	17	1	5	374.8524	35	1	4000	2242627.6141	163.8810	78.9935	83.0146	84.0324	85.0325	0
202	14	18	1	5	381.0958	35	1	4000	2242627.6141	163.8810	85.0669	89.0878	90.1058	91.1059	0
202	14	19	1	5	388.1635	35	1	4000	2242627.6141	163.8810	91.1236	95.1447	96.1625	97.1626	0
202	14	20	1	5	532.8431	32	1	4000	2242627.6141	163.8810	97.1969	101.2012	102.2191	103.2193	0
202	14	21	1	5	515.1390	32	1	4000	2242627.6141	163.8810	103.2369	107.2580	108.2758	109.2760	0
202	14	22	1	5	489.5895	32	1	4000	2242627.6141	163.8810	109.2936	113.3147	114.3492	115.3493	0
202	14	23	1	5	448.0202	35	1	4000	2242627.6141	163.8810	115.3837	119.4048	120.4225	121.4227	0
202	14	24	1	5	464.4358	32	1	4000	2242627.6141	163.8810	121.4403	125.4614	126.4792	127.4794	0
202	14	25	1	5	430.2878	32	1	4000	2242627.6141	163.8810	127.5136	131.5348	132.5526	133.5527	0
202	14	26	1	5	438.5043	32	1	4000	2242627.6141	163.8810	133.5704	137.5915	138.6093	139.6094	0
202	14	27	1	5	733.4975	35	1	4000	2242627.6141	163.8810	139.6270	143.6482	144.6660	145.6661	0
202	14	28	1	5	483.7894	32	1	4000	2242627.6141	163.8810	145.7004	149.7215	150.7393	151.7395	0
202	14	29	1	5	467.5275	32	1	4000	2242627.6141	163.8810	151.7571	155.7782	156.7960	157.7962	0
202	14	30	1	5	499.2172	32	1	4000	2242627.6141	163.8810	157.8305	161.8348	162.8527	163.8529	0
202	15	1	1	5	747.6571	35	0	1000	2242627.6141	163.8564	 0.0159	 1.0337	 2.0515	 3.0516	0
202	15	2	1	5	670.7456	35	1	1000	2242627.6141	163.8564	 3.8534	 4.8712	 5.8890	 6.8891	0
202	15	3	1	5	638.9515	35	1	1000	2242627.6141	163.8564	 6.9234	 7.9580	 8.9925	 9.9926	0
202	15	4	1	5	554.2755	35	1	1000	2242627.6141	163.8564	10.0102	11.0280	12.0457	13.0459	0
202	15	5	1	5	659.3170	32	1	1000	2242627.6141	163.8564	13.0636	14.0814	15.0992	16.0993	0
202	15	6	1	5	454.9178	35	1	1000	2242627.6141	163.8564	16.1170	17.1348	18.1526	19.1527	0
202	15	7	1	5	414.3366	35	1	4000	2242627.6141	163.8564	19.1703	23.1914	24.2092	25.2094	0
202	15	8	1	5	461.5403	35	1	4000	2242627.6141	163.8564	25.2270	29.2481	30.2659	31.2661	0
202	15	9	1	5	413.2469	35	1	4000	2242627.6141	163.8564	31.2837	35.3048	36.3226	37.3227	0
202	15	10	1	5	515.5707	32	1	4000	2242627.6141	163.8564	37.3571	41.3782	42.3960	43.3961	0
202	15	11	1	5	594.8128	32	1	4000	2242627.6141	163.8564	43.4138	47.4348	48.4526	49.4528	0
202	15	12	1	5	626.7560	35	1	4000	2242627.6141	163.8564	49.4704	53.4915	54.5094	55.5095	0
202	15	13	1	5	432.8726	32	1	4000	2242627.6141	163.8564	55.5271	59.5482	60.5659	61.5660	0
202	15	14	1	5	560.5485	35	1	4000	2242627.6141	163.8564	61.5838	65.6049	66.6227	67.6229	0
202	15	15	1	5	502.9813	32	1	4000	2242627.6141	163.8564	67.6572	71.6783	72.6960	73.6961	0
202	15	16	1	5	495.1096	35	1	4000	2242627.6141	163.8564	73.7139	77.7350	78.7528	79.7529	0
202	15	17	1	5	542.1280	35	1	4000	2242627.6141	163.8564	79.7705	83.7917	84.8094	85.8095	0
202	15	18	1	5	485.0285	32	1	4000	2242627.6141	163.8564	85.8272	89.8483	90.8661	91.8662	0
202	15	19	1	5	435.7772	32	1	4000	2242627.6141	163.8564	91.8839	95.9050	96.9228	97.9230	0
202	15	20	1	5	602.5756	35	1	4000	2242627.6141	163.8564	97.9572	101.9784	102.9962	103.9963	0
202	15	21	1	5	513.7953	32	1	4000	2242627.6141	163.8564	104.0139	108.0350	109.0528	110.0530	0
202	15	22	1	5	505.8585	32	1	4000	2242627.6141	163.8564	110.0873	114.1084	115.1262	116.1263	0
202	15	23	1	5	392.7075	35	1	4000	2242627.6141	163.8564	116.1440	120.1651	121.1828	122.1830	0
202	15	24	1	5	495.7759	35	1	4000	2242627.6141	163.8564	122.2007	126.2218	127.2396	128.2397	0
202	15	25	1	5	494.9362	32	1	4000	2242627.6141	163.8564	128.2740	132.2952	133.3128	134.3130	0
202	15	26	1	5	429.5173	35	1	4000	2242627.6141	163.8564	134.3307	138.3518	139.3695	140.3696	0
202	15	27	1	5	541.1252	32	1	4000	2242627.6141	163.8564	140.3874	144.4085	145.4263	146.4264	0
202	15	28	1	5	556.5224	35	1	4000	2242627.6141	163.8564	146.4441	150.4652	151.4830	152.4831	0
202	15	29	1	5	532.2247	32	1	4000	2242627.6141	163.8564	152.5008	156.5219	157.5397	158.5398	0
202	15	30	1	5	794.4901	35	1	4000	2242627.6141	163.8564	158.5742	162.5952	163.6130	164.6132	0
SUBID	BLOCK	TRIAL	REP	RUNID	RT	RESP	ACC	RSIJIT	EV_START	EV_BLOCK	EV_TRIAL	EV_RETRIEVAL	EV_PROBE	EV_RESP	EV_BLEND
202	16	1	1	6	452.3711	35	1	1000	2243218.8612	 0.0039	 0.0211	 1.0550	 2.0727	 3.0753	0
202	16	2	1	6	680.6118	32	1	1000	2243218.8612	 0.0039	 3.1067	 4.1245	 5.1423	 6.1425	0
202	16	3	1	6	737.2589	35	1	1000	2243218.8612	 0.0039	 6.1767	 7.2112	 8.2457	 9.2459	0
202	16	4	1	6	674.4352	32	1	1000	2243218.8612	 0.0039	 9.2802	10.2980	11.3158	12.3159	0
202	16	5	1	6	413.9317	32	1	1000	2243218.8612	 0.0039	12.3336	13.3513	14.3692	15.3693	0
202	16	6	1	6	472.5145	32	1	1000	2243218.8612	 0.0039	15.3870	16.4047	17.4225	18.4227	0
202	16	7	1	6	414.7487	35	1	4000	2243218.8612	 0.0039	18.4403	22.4614	23.4959	24.4960	0
202	16	8	1	6	469.1725	35	1	4000	2243218.8612	 0.0039	24.5304	28.5515	29.5693	30.5694	0
202	16	9	1	6	477.1948	32	1	4000	2243218.8612	 0.0039	30.5870	34.6082	35.6260	36.6262	0
202	16	10	1	6	419.3940	35	1	4000	2243218.8612	 0.0039	36.6604	40.6815	41.6993	42.6995	0
202	16	11	1	6	419.2467	32	1	4000	2243218.8612	 0.0039	42.7171	46.7382	47.7560	48.7562	0
202	16	12	1	6	666.0339	35	1	4000	2243218.8612	 0.0039	48.7738	52.7949	53.8294	54.8295	0
202	16	13	1	6	536.3276	32	1	4000	2243218.8612	 0.0039	54.8472	58.8682	59.8861	60.8862	0
202	16	14	1	6	560.7531	35	1	4000	2243218.8612	 0.0039	60.9038	64.9249	65.9427	66.9428	0
202	16	15	1	6	471.3723	32	1	4000	2243218.8612	 0.0039	66.9772	70.9983	72.0161	73.0162	0
202	16	16	1	6	389.2854	35	1	4000	2243218.8612	 0.0039	73.0339	77.0550	78.0728	79.0730	0
202	16	17	1	6	444.6113	32	1	4000	2243218.8612	 0.0039	79.0905	83.1117	84.1461	85.1463	0
202	16	18	1	6	587.1057	32	1	4000	2243218.8612	 0.0039	85.1639	89.1850	90.2028	91.2030	0
202	16	19	1	6	435.5390	35	1	4000	2243218.8612	 0.0039	91.2206	95.2417	96.2595	97.2597	0
202	16	20	1	6	465.9542	35	1	4000	2243218.8612	 0.0039	97.2940	101.3151	102.3329	103.3330	0
202	16	21	1	6	473.1179	32	1	4000	2243218.8612	 0.0039	103.3507	107.3718	108.3895	109.3896	0
202	16	22	1	6	407.3035	35	1	4000	2243218.8612	 0.0039	109.4073	113.4283	114.4629	115.4631	0
202	16	23	1	6	479.6707	35	1	4000	2243218.8612	 0.0039	115.4807	119.5018	120.5196	121.5197	0
202	16	24	1	6	399.0550	35	1	4000	2243218.8612	 0.0039	121.5374	125.5585	126.5763	127.5765	0
202	16	25	1	6	428.3005	35	1	4000	2243218.8612	 0.0039	127.6108	131.6319	132.6496	133.6498	0
202	16	26	1	6	419.7999	35	1	4000	2243218.8612	 0.0039	133.6674	137.6885	138.7063	139.7065	0
202	16	27	1	6	443.6849	35	1	4000	2243218.8612	 0.0039	139.7241	143.7452	144.7797	145.7799	0
202	16	28	1	6	467.0740	35	1	4000	2243218.8612	 0.0039	145.7975	149.8186	150.8364	151.8365	0
202	16	29	1	6	465.0389	32	1	4000	2243218.8612	 0.0039	151.8542	155.8753	156.8931	157.8933	0
202	16	30	1	6	399.8839	35	1	4000	2243218.8612	 0.0039	157.9274	161.9486	162.9664	163.9666	0
202	17	1	1	6	681.0475	35	1	1000	2243218.8612	163.9706	 0.0252	 1.0430	 2.0607	 3.0609	0
202	17	2	1	6	436.1750	35	1	1000	2243218.8612	163.9706	 3.0786	 4.0964	 5.1142	 6.1143	0
202	17	3	1	6	612.3920	32	1	1000	2243218.8612	163.9706	 6.1487	 7.1831	 8.2176	 9.2177	0
202	17	4	1	6	366.8760	35	1	1000	2243218.8612	163.9706	 9.2353	10.2531	11.2710	12.2711	0
202	17	5	1	6	489.6493	35	1	1000	2243218.8612	163.9706	12.2887	13.3065	14.3243	15.3245	0
202	17	6	1	6	581.4569	32	1	1000	2243218.8612	163.9706	15.3421	16.3599	17.3777	18.3778	0
202	17	7	1	6	507.7325	32	1	4000	2243218.8612	163.9706	18.3955	22.4166	23.4511	24.4512	0
202	17	8	1	6	441.9774	32	1	4000	2243218.8612	163.9706	24.4689	28.4900	29.5077	30.5078	0
202	17	9	1	6	425.6968	35	1	4000	2243218.8612	163.9706	30.5255	34.5466	35.5644	36.5646	0
202	17	10	1	6	456.2678	32	1	4000	2243218.8612	163.9706	36.5988	40.6200	41.6378	42.6380	0
202	17	11	1	6	431.7583	32	1	4000	2243218.8612	163.9706	42.6556	46.6767	47.6945	48.6946	0
202	17	12	1	6	445.8292	32	1	4000	2243218.8612	163.9706	48.7123	52.7334	53.7678	54.7679	0
202	17	13	1	6	470.1486	35	1	4000	2243218.8612	163.9706	54.7856	58.8067	59.8245	60.8247	0
202	17	14	1	6	420.8993	32	1	4000	2243218.8612	163.9706	60.8423	64.8634	65.8812	66.8813	0
202	17	15	1	6	403.6832	35	1	4000	2243218.8612	163.9706	66.9157	70.9368	71.9546	72.9547	0
202	17	16	1	6	435.2684	32	1	4000	2243218.8612	163.9706	72.9723	76.9935	78.0113	79.0114	0
202	17	17	1	6	465.3859	32	1	4000	2243218.8612	163.9706	79.0290	83.0502	84.0846	85.0848	0
202	17	18	1	6	408.7962	35	1	4000	2243218.8612	163.9706	85.1024	89.1235	90.1413	91.1415	0
202	17	19	1	6	447.9210	32	1	4000	2243218.8612	163.9706	91.1591	95.1802	96.1979	97.1981	0
202	17	20	1	6	430.9141	32	1	4000	2243218.8612	163.9706	97.2325	101.2536	102.2714	103.2715	0
202	17	21	1	6	430.8681	35	1	4000	2243218.8612	163.9706	103.2892	107.3103	108.3280	109.3282	0
202	17	22	1	6	461.5949	32	1	4000	2243218.8612	163.9706	109.3458	113.3669	114.4014	115.4016	0
202	17	23	1	6	516.2218	35	1	4000	2243218.8612	163.9706	115.4192	119.4403	120.4581	121.4582	0
202	17	24	1	6	618.9172	32	1	4000	2243218.8612	163.9706	121.4759	125.4970	126.5148	127.5149	0
202	17	25	1	6	473.9238	32	1	4000	2243218.8612	163.9706	127.5492	131.5703	132.5881	133.5883	0
202	17	26	1	6	586.2343	35	1	4000	2243218.8612	163.9706	133.6059	137.6270	138.6448	139.6450	0
202	17	27	1	6	457.6035	35	1	4000	2243218.8612	163.9706	139.6626	143.6837	144.7014	145.7015	0
202	17	28	1	6	432.4931	35	1	4000	2243218.8612	163.9706	145.7193	149.7404	150.7582	151.7584	0
202	17	29	1	6	439.1029	35	1	4000	2243218.8612	163.9706	151.7759	155.7971	156.8149	157.8150	0
202	17	30	1	6	357.8734	35	1	4000	2243218.8612	163.9706	157.8493	161.8704	162.8882	163.8884	0
202	18	1	1	6	397.7198	35	1	1000	2243218.8612	163.8920	 0.0218	 1.0396	 2.0574	 3.0575	0
202	18	2	1	6	640.1583	32	1	1000	2243218.8612	163.8920	 3.0751	 4.0930	 5.1107	 6.1109	0
202	18	3	1	6	609.7023	32	1	1000	2243218.8612	163.8920	 6.1452	 7.1797	 8.1975	 9.1976	0
202	18	4	1	6	588.6772	32	1	1000	2243218.8612	163.8920	 9.2152	10.2330	11.2508	12.2510	0
202	18	5	1	6	447.5988	32	1	1000	2243218.8612	163.8920	12.2686	13.2863	14.3042	15.3044	0
202	18	6	1	6	410.1726	32	1	1000	2243218.8612	163.8920	15.3219	16.3398	17.3576	18.3577	0
202	18	7	1	6	551.6698	32	1	4000	2243218.8612	163.8920	18.3920	22.4131	23.4309	24.4311	0
202	18	8	1	6	375.3875	35	1	4000	2243218.8612	163.8920	24.4487	28.4698	29.4876	30.4878	0
202	18	9	1	6	751.4702	35	1	4000	2243218.8612	163.8920	30.5053	34.5265	35.5443	36.5444	0
202	18	10	1	6	381.2300	35	1	4000	2243218.8612	163.8920	36.5788	40.5998	41.6177	42.6179	0
202	18	11	1	6	773.2534	35	1	4000	2243218.8612	163.8920	42.6355	46.6566	47.6743	48.6745	0
202	18	12	1	6	611.8134	32	1	4000	2243218.8612	163.8920	48.6921	52.7132	53.7310	54.7312	0
202	18	13	1	6	411.5007	32	1	4000	2243218.8612	163.8920	54.7488	58.7699	59.7877	60.7879	0
202	18	14	1	6	682.8376	32	1	4000	2243218.8612	163.8920	60.8054	64.8266	65.8444	66.8446	0
202	18	15	1	6	465.6227	35	1	4000	2243218.8612	163.8920	66.8789	70.8999	71.9178	72.9179	0
202	18	16	1	6	441.5274	32	1	4000	2243218.8612	163.8920	72.9355	76.9567	77.9745	78.9747	0
202	18	17	1	6	390.6820	32	1	4000	2243218.8612	163.8920	79.0089	83.0300	84.0478	85.0479	0
202	18	18	1	6	478.5887	35	1	4000	2243218.8612	163.8920	85.0656	89.0867	90.1045	91.1047	0
202	18	19	1	6	398.7700	32	1	4000	2243218.8612	163.8920	91.1222	95.1434	96.1612	97.1613	0
202	18	20	1	6	436.1719	32	1	4000	2243218.8612	163.8920	97.1956	101.2166	102.2346	103.2347	0
202	18	21	1	6	363.5716	32	1	4000	2243218.8612	163.8920	103.2523	107.2734	108.2912	109.2914	0
202	18	22	1	6	538.2964	35	1	4000	2243218.8612	163.8920	109.3257	113.3468	114.3646	115.3648	0
202	18	23	1	6	386.5040	32	1	4000	2243218.8612	163.8920	115.3823	119.4035	120.4213	121.4214	0
202	18	24	1	6	416.5487	35	1	4000	2243218.8612	163.8920	121.4391	125.4601	126.4779	127.4781	0
202	18	25	1	6	375.2125	35	1	4000	2243218.8612	163.8920	127.5124	131.5335	132.5513	133.5515	0
202	18	26	1	6	447.5457	32	1	4000	2243218.8612	163.8920	133.5691	137.5902	138.6080	139.6081	0
202	18	27	1	6	558.5028	32	1	4000	2243218.8612	163.8920	139.6425	143.6636	144.6814	145.6815	0
202	18	28	1	6	365.3075	35	1	4000	2243218.8612	163.8920	145.6992	149.7203	150.7380	151.7382	0
202	18	29	1	6	420.0907	32	1	4000	2243218.8612	163.8920	151.7558	155.7769	156.7947	157.7949	0
202	18	30	1	6	467.9048	32	1	4000	2243218.8612	163.8920	157.8292	161.8503	162.8681	163.8682	0
SUBID	BLOCK	TRIAL	REP	RUNID	RT	RESP	ACC	RSIJIT	EV_START	EV_BLOCK	EV_TRIAL	EV_RETRIEVAL	EV_PROBE	EV_RESP	EV_BLEND
202	19	1	1	7	577.1364	32	1	1000	2243840.0936	 0.0039	 0.0327	 1.0665	 2.0842	 3.0868	0
202	19	2	1	7	509.4470	32	1	1000	2243840.0936	 0.0039	 3.1182	 4.1359	 5.1537	 6.1539	0
202	19	3	1	7	534.5277	32	1	1000	2243840.0936	 0.0039	 6.1883	 7.2227	 8.2406	 9.2407	0
202	19	4	1	7	456.4582	32	1	1000	2243840.0936	 0.0039	 9.2584	10.2762	11.2940	12.2941	0
202	19	5	1	7	483.4616	32	1	1000	2243840.0936	 0.0039	12.3118	13.3295	14.3473	15.3475	0
202	19	6	1	7	573.9709	35	1	1000	2243840.0936	 0.0039	15.3651	16.3829	17.4007	18.4008	0
202	19	7	1	7	508.2957	35	1	4000	2243840.0936	 0.0039	18.4352	22.4562	23.4740	24.4742	0
202	19	8	1	7	499.2206	32	1	4000	2243840.0936	 0.0039	24.4918	28.5130	29.5307	30.5309	0
202	19	9	1	7	395.1981	32	1	4000	2243840.0936	 0.0039	30.5485	34.5696	35.5874	36.5876	0
202	19	10	1	7	425.5264	32	1	4000	2243840.0936	 0.0039	36.6219	40.6429	41.6608	42.6610	0
202	19	11	1	7	432.9070	35	1	4000	2243840.0936	 0.0039	42.6786	46.6997	47.7175	48.7176	0
202	19	12	1	7	456.5838	35	1	4000	2243840.0936	 0.0039	48.7519	52.7563	53.7740	54.7742	0
202	19	13	1	7	446.9490	32	1	4000	2243840.0936	 0.0039	54.7920	58.8130	59.8308	60.8310	0
202	19	14	1	7	406.9208	32	1	4000	2243840.0936	 0.0039	60.8486	64.8697	65.8875	66.8877	0
202	19	15	1	7	382.1127	32	1	4000	2243840.0936	 0.0039	66.9220	70.9431	71.9609	72.9610	0
202	19	16	1	7	389.5686	32	1	4000	2243840.0936	 0.0039	72.9786	76.9997	78.0176	79.0177	0
202	19	17	1	7	427.6386	35	1	4000	2243840.0936	 0.0039	79.0520	83.0564	84.0743	85.0744	0
202	19	18	1	7	387.8769	35	1	4000	2243840.0936	 0.0039	85.0920	89.1131	90.1309	91.1311	0
202	19	19	1	7	490.4659	32	1	4000	2243840.0936	 0.0039	91.1488	95.1698	96.1876	97.1877	0
202	19	20	1	7	482.3379	32	1	4000	2243840.0936	 0.0039	97.2222	101.2432	102.2610	103.2611	0
202	19	21	1	7	448.5626	32	1	4000	2243840.0936	 0.0039	103.2788	107.2999	108.3177	109.3178	0
202	19	22	1	7	391.1361	32	1	4000	2243840.0936	 0.0039	109.3521	113.3732	114.3910	115.3912	0
202	19	23	1	7	463.1662	35	1	4000	2243840.0936	 0.0039	115.4088	119.4299	120.4477	121.4479	0
202	19	24	1	7	342.8138	32	1	4000	2243840.0936	 0.0039	121.4655	125.4866	126.5044	127.5045	0
202	19	25	1	7	436.2027	35	1	4000	2243840.0936	 0.0039	127.5389	131.5600	132.5778	133.5779	0
202	19	26	1	7	275.8999	32	0	4000	2243840.0936	 0.0039	133.5956	137.6167	138.6344	139.6346	0
202	19	27	1	7	498.7099	32	1	4000	2243840.0936	 0.0039	140.4531	144.4742	145.4920	146.4922	0
202	19	28	1	7	465.3036	35	1	4000	2243840.0936	 0.0039	146.5098	150.5309	151.5486	152.5488	0
202	19	29	1	7	519.8290	32	1	4000	2243840.0936	 0.0039	152.5665	156.5876	157.6221	158.6222	0
202	19	30	1	7	400.1976	35	1	4000	2243840.0936	 0.0039	158.6397	162.6609	163.6787	164.6789	0
202	20	1	1	7	489.7091	32	1	1000	2243840.0936	164.6828	 0.0261	 1.0438	 2.0616	 3.0618	0
202	20	2	1	7	737.6467	32	1	1000	2243840.0936	164.6828	 3.0961	 4.1305	 5.1651	 6.1652	0
202	20	3	1	7	515.9656	35	1	1000	2243840.0936	164.6828	 6.1828	 7.2006	 8.2184	 9.2186	0
202	20	4	1	7	455.7369	32	1	1000	2243840.0936	164.6828	 9.2362	10.2540	11.2718	12.2720	0
202	20	5	1	7	474.2453	35	1	1000	2243840.0936	164.6828	12.2896	13.3074	14.3252	15.3253	0
202	20	6	1	7	461.1900	35	1	1000	2243840.0936	164.6828	15.3429	16.3607	17.3785	18.3787	0
202	20	7	1	7	554.8027	35	1	4000	2243840.0936	164.6828	18.4130	22.4341	23.4519	24.4520	0
202	20	8	1	7	434.2084	35	1	4000	2243840.0936	164.6828	24.4696	28.4908	29.5086	30.5087	0
202	20	9	1	7	633.0019	32	1	4000	2243840.0936	164.6828	30.5264	34.5475	35.5820	36.5821	0
202	20	10	1	7	392.0859	35	1	4000	2243840.0936	164.6828	36.5997	40.6208	41.6386	42.6388	0
202	20	11	1	7	383.0942	35	1	4000	2243840.0936	164.6828	42.6564	46.6775	47.6953	48.6954	0
202	20	12	1	7	374.9486	35	1	4000	2243840.0936	164.6828	48.7298	52.7508	53.7687	54.7688	0
202	20	13	1	7	422.2920	32	1	4000	2243840.0936	164.6828	54.7865	58.8076	59.8253	60.8254	0
202	20	14	1	7	411.5042	32	1	4000	2243840.0936	164.6828	60.8432	64.8643	65.8987	66.8989	0
202	20	15	1	7	436.4281	32	1	4000	2243840.0936	164.6828	66.9165	70.9376	71.9555	72.9556	0
202	20	16	1	7	394.5860	35	1	4000	2243840.0936	164.6828	72.9732	76.9943	78.0121	79.0122	0
202	20	17	1	7	401.7306	35	1	4000	2243840.0936	164.6828	79.0466	83.0677	84.0855	85.0856	0
202	20	18	1	7	616.4639	32	1	4000	2243840.0936	164.6828	85.1032	89.1243	90.1421	91.1423	0
202	20	19	1	7	472.2373	32	1	4000	2243840.0936	164.6828	91.1599	95.1810	96.2155	97.2157	0
202	20	20	1	7	423.5677	35	1	4000	2243840.0936	164.6828	97.2333	101.2544	102.2722	103.2723	0
202	20	21	1	7	422.4554	35	1	4000	2243840.0936	164.6828	103.2900	107.3111	108.3289	109.3290	0
202	20	22	1	7	324.0302	35	1	4000	2243840.0936	164.6828	109.3633	113.3844	114.4022	115.4024	0
202	20	23	1	7	396.6026	35	1	4000	2243840.0936	164.6828	115.4199	119.4411	120.4589	121.4591	0
202	20	24	1	7	531.0830	32	1	4000	2243840.0936	164.6828	121.4767	125.4978	126.5323	127.5325	0
202	20	25	1	7	481.2734	32	1	4000	2243840.0936	164.6828	127.5500	131.5712	132.5890	133.5892	0
202	20	26	1	7	449.0974	35	1	4000	2243840.0936	164.6828	133.6068	137.6279	138.6456	139.6458	0
202	20	27	1	7	536.4618	35	1	4000	2243840.0936	164.6828	139.6801	143.7012	144.7190	145.7191	0
202	20	28	1	7	431.6519	32	1	4000	2243840.0936	164.6828	145.7368	149.7579	150.7757	151.7758	0
202	20	29	1	7	405.9020	32	1	4000	2243840.0936	164.6828	151.7935	155.8146	156.8490	157.8491	0
202	20	30	1	7	412.8961	32	1	4000	2243840.0936	164.6828	157.8669	161.8880	162.9057	163.9059	0
202	21	1	1	7	447.4537	35	1	1000	2243840.0936	163.9093	 0.0203	 1.0380	 2.0558	 3.0559	0
202	21	2	1	7	496.3340	35	1	1000	2243840.0936	163.9093	 3.0903	 4.1247	 5.1426	 6.1427	0
202	21	3	1	7	587.1647	32	1	1000	2243840.0936	163.9093	 6.1603	 7.1781	 8.1959	 9.1961	0
202	21	4	1	7	429.4309	35	1	1000	2243840.0936	163.9093	 9.2137	10.2315	11.2493	12.2495	0
202	21	5	1	7	457.1147	35	1	1000	2243840.0936	163.9093	12.2671	13.2849	14.3027	15.3028	0
202	21	6	1	7	490.7863	35	1	1000	2243840.0936	163.9093	15.3371	16.3549	17.3727	18.3729	0
202	21	7	1	7	689.8280	32	1	4000	2243840.0936	163.9093	18.4072	22.4283	23.4461	24.4462	0
202	21	8	1	7	441.1585	32	1	4000	2243840.0936	163.9093	24.4639	28.4850	29.5028	30.5029	0
202	21	9	1	7	496.2461	32	1	4000	2243840.0936	163.9093	30.5206	34.5415	35.5594	36.5595	0
202	21	10	1	7	439.4607	35	1	4000	2243840.0936	163.9093	36.5772	40.5983	41.6161	42.6162	0
202	21	11	1	7	431.0193	35	1	4000	2243840.0936	163.9093	42.6339	46.6550	47.6728	48.6729	0
202	21	12	1	7	501.0233	32	1	4000	2243840.0936	163.9093	48.7073	52.7284	53.7462	54.7464	0
202	21	13	1	7	396.9686	35	1	4000	2243840.0936	163.9093	54.7640	58.7851	59.8029	60.8030	0
202	21	14	1	7	427.9816	32	1	4000	2243840.0936	163.9093	60.8374	64.8584	65.8762	66.8764	0
202	21	15	1	7	482.3903	35	1	4000	2243840.0936	163.9093	66.8940	70.9151	71.9329	72.9331	0
202	21	16	1	7	506.4159	32	1	4000	2243840.0936	163.9093	72.9507	76.9718	77.9896	78.9898	0
202	21	17	1	7	376.1710	35	1	4000	2243840.0936	163.9093	79.0241	83.0452	84.0630	85.0631	0
202	21	18	1	7	424.4535	35	1	4000	2243840.0936	163.9093	85.0807	89.1018	90.1196	91.1198	0
202	21	19	1	7	462.0235	32	1	4000	2243840.0936	163.9093	91.1541	95.1919	96.2097	97.2098	0
202	21	20	1	7	365.6202	35	1	4000	2243840.0936	163.9093	97.2275	101.2486	102.2663	103.2665	0
202	21	21	1	7	468.5453	32	1	4000	2243840.0936	163.9093	103.2842	107.3053	108.3231	109.3232	0
202	21	22	1	7	403.7905	32	1	4000	2243840.0936	163.9093	109.3575	113.3787	114.3964	115.3966	0
202	21	23	1	7	474.0047	32	1	4000	2243840.0936	163.9093	115.4141	119.4353	120.4531	121.4532	0
202	21	24	1	7	449.6879	35	1	4000	2243840.0936	163.9093	121.4876	125.4919	126.5098	127.5099	0
202	21	25	1	7	648.8388	32	1	4000	2243840.0936	163.9093	127.5275	131.5487	132.5665	133.5666	0
202	21	26	1	7	551.9596	32	1	4000	2243840.0936	163.9093	133.5843	137.6054	138.6232	139.6233	0
202	21	27	1	7	446.5910	35	1	4000	2243840.0936	163.9093	139.6576	143.6787	144.6965	145.6966	0
202	21	28	1	7	430.0759	35	1	4000	2243840.0936	163.9093	145.7143	149.7354	150.7531	151.7532	0
202	21	29	1	7	396.9434	35	1	4000	2243840.0936	163.9093	151.7877	155.8088	156.8266	157.8267	0
202	21	30	1	7	420.0057	35	1	4000	2243840.0936	163.9093	157.8444	161.8654	162.8833	163.8834	0
SUBID	BLOCK	TRIAL	REP	RUNID	RT	RESP	ACC	RSIJIT	EV_START	EV_BLOCK	EV_TRIAL	EV_RETRIEVAL	EV_PROBE	EV_RESP	EV_BLEND
202	22	1	1	8	439.7356	35	1	1000	2244439.4137	 0.0040	 0.0187	 1.0358	 2.0537	 3.0563	0
202	22	2	1	8	652.7550	35	1	1000	2244439.4137	 0.0040	 3.0877	 4.1055	 5.1233	 6.1235	0
202	22	3	1	8	366.9506	35	1	1000	2244439.4137	 0.0040	 6.1412	 7.1589	 8.1767	 9.1769	0
202	22	4	1	8	694.9877	35	1	1000	2244439.4137	 0.0040	 9.2112	10.2456	11.2801	12.2802	0
202	22	5	1	8	618.1116	32	1	1000	2244439.4137	 0.0040	12.3145	13.3324	14.3502	15.3503	0
202	22	6	1	8	388.2341	32	1	1000	2244439.4137	 0.0040	15.3678	16.3857	17.4035	18.4037	0
202	22	7	1	8	500.2244	32	1	4000	2244439.4137	 0.0040	18.4213	22.4424	23.4602	24.4604	0
202	22	8	1	8	402.0361	35	1	4000	2244439.4137	 0.0040	24.4947	28.5158	29.5336	30.5338	0
202	22	9	1	8	425.6171	35	1	4000	2244439.4137	 0.0040	30.5514	34.5725	35.5903	36.5904	0
202	22	10	1	8	368.0348	35	1	4000	2244439.4137	 0.0040	36.6080	40.6292	41.6637	42.6638	0
202	22	11	1	8	671.4884	32	1	4000	2244439.4137	 0.0040	42.6981	46.7192	47.7370	48.7371	0
202	22	12	1	8	406.6571	35	1	4000	2244439.4137	 0.0040	48.7547	52.7759	53.7937	54.7939	0
202	22	13	1	8	435.8357	35	0	4000	2244439.4137	 0.0040	54.8282	58.8493	59.8671	60.8672	0
202	22	14	1	8	428.6608	35	1	4000	2244439.4137	 0.0040	61.6524	65.6733	66.6912	67.6914	0
202	22	15	1	8	394.4982	35	1	4000	2244439.4137	 0.0040	67.7090	71.7300	72.7646	73.7648	0
202	22	16	1	8	570.8861	32	1	4000	2244439.4137	 0.0040	73.7823	77.8035	78.8213	79.8214	0
202	22	17	1	8	441.9669	35	1	4000	2244439.4137	 0.0040	79.8391	83.8602	84.8779	85.8781	0
202	22	18	1	8	440.6354	35	1	4000	2244439.4137	 0.0040	85.9125	89.9335	90.9514	91.9515	0
202	22	19	1	8	494.9688	32	1	4000	2244439.4137	 0.0040	91.9690	95.9902	97.0080	98.0082	0
202	22	20	1	8	382.7649	35	1	4000	2244439.4137	 0.0040	98.0259	102.0469	103.0814	104.0816	0
202	22	21	1	8	414.1593	32	1	4000	2244439.4137	 0.0040	104.0992	108.1202	109.1380	110.1381	0
202	22	22	1	8	437.6909	32	1	4000	2244439.4137	 0.0040	110.1559	114.1770	115.1948	116.1950	0
202	22	23	1	8	444.0660	35	1	4000	2244439.4137	 0.0040	116.2292	120.2503	121.2682	122.2683	0
202	22	24	1	8	475.3156	32	1	4000	2244439.4137	 0.0040	122.2859	126.3070	127.3248	128.3250	0
202	22	25	1	8	450.2932	32	1	4000	2244439.4137	 0.0040	128.3426	132.3637	133.3981	134.3983	0
202	22	26	1	8	416.6542	35	1	4000	2244439.4137	 0.0040	134.4160	138.4371	139.4549	140.4550	0
202	22	27	1	8	536.7404	35	1	4000	2244439.4137	 0.0040	140.4727	144.4938	145.5115	146.5117	0
202	22	28	1	8	453.9401	35	1	4000	2244439.4137	 0.0040	146.5460	150.5672	151.5849	152.5851	0
202	22	29	1	8	422.0741	35	1	4000	2244439.4137	 0.0040	152.6027	156.6238	157.6416	158.6418	0
202	22	30	1	8	421.2654	32	1	4000	2244439.4137	 0.0040	158.6593	162.6804	163.6983	164.6984	0
202	23	1	1	8	497.8842	35	1	1000	2244439.4137	164.7023	 0.0177	 1.0355	 2.0533	 3.0535	0
202	23	2	1	8	396.9656	32	1	1000	2244439.4137	164.7023	 3.0709	 4.0888	 5.1066	 6.1067	0
202	23	3	1	8	454.4327	32	1	1000	2244439.4137	164.7023	 6.1410	 7.1588	 8.1934	 9.1935	0
202	23	4	1	8	454.8745	35	1	1000	2244439.4137	164.7023	 9.2278	10.2456	11.2634	12.2636	0
202	23	5	1	8	370.9144	35	1	1000	2244439.4137	164.7023	12.2812	13.2990	14.3168	15.3169	0
202	23	6	1	8	485.4560	32	1	1000	2244439.4137	164.7023	15.3346	16.3523	17.3701	18.3702	0
202	23	7	1	8	492.1090	35	1	4000	2244439.4137	164.7023	18.3879	22.4089	23.4435	24.4437	0
202	23	8	1	8	442.1354	32	1	4000	2244439.4137	164.7023	24.4780	28.4990	29.5169	30.5170	0
202	23	9	1	8	425.5549	32	1	4000	2244439.4137	164.7023	30.5347	34.5558	35.5735	36.5737	0
202	23	10	1	8	391.7623	32	1	4000	2244439.4137	164.7023	36.6080	40.6291	41.6468	42.6470	0
202	23	11	1	8	400.1247	32	1	4000	2244439.4137	164.7023	42.6647	46.6858	47.7037	48.7038	0
202	23	12	1	8	382.2405	35	1	4000	2244439.4137	164.7023	48.7214	52.7425	53.7770	54.7771	0
202	23	13	1	8	492.8003	35	1	4000	2244439.4137	164.7023	54.8115	58.8325	59.8503	60.8505	0
202	23	14	1	8	523.5773	32	1	4000	2244439.4137	164.7023	60.8681	64.8892	65.9070	66.9071	0
202	23	15	1	8	442.2263	35	1	4000	2244439.4137	164.7023	66.9414	70.9626	71.9804	72.9805	0
202	23	16	1	8	393.8995	32	1	4000	2244439.4137	164.7023	72.9982	77.0193	78.0371	79.0372	0
202	23	17	1	8	319.9628	35	1	4000	2244439.4137	164.7023	79.0549	83.0760	84.1104	85.1106	0
202	23	18	1	8	495.7904	32	1	4000	2244439.4137	164.7023	85.1281	89.1493	90.1671	91.1672	0
202	23	19	1	8	359.3585	35	1	4000	2244439.4137	164.7023	91.1849	95.2060	96.2238	97.2240	0
202	23	20	1	8	398.5466	35	1	4000	2244439.4137	164.7023	97.2583	101.2794	102.2972	103.2973	0
202	23	21	1	8	373.5589	35	1	4000	2244439.4137	164.7023	103.3150	107.3360	108.3538	109.3540	0
202	23	22	1	8	460.4289	35	1	4000	2244439.4137	164.7023	109.3716	113.3926	114.4272	115.4274	0
202	23	23	1	8	355.1431	35	1	4000	2244439.4137	164.7023	115.4450	119.4661	120.4839	121.4841	0
202	23	24	1	8	489.8512	32	1	4000	2244439.4137	164.7023	121.5017	125.5228	126.5405	127.5407	0
202	23	25	1	8	369.6843	35	1	4000	2244439.4137	164.7023	127.5750	131.5960	132.6139	133.6141	0
202	23	26	1	8	472.1364	35	1	4000	2244439.4137	164.7023	133.6317	137.6527	138.6706	139.6707	0
202	23	27	1	8	598.9524	32	1	4000	2244439.4137	164.7023	139.6884	143.7095	144.7439	145.7441	0
202	23	28	1	8	445.9346	35	1	4000	2244439.4137	164.7023	145.7617	149.7828	150.8007	151.8008	0
202	23	29	1	8	598.5020	32	1	4000	2244439.4137	164.7023	151.8185	155.8396	156.8574	157.8575	0
202	23	30	1	8	412.3643	32	1	4000	2244439.4137	164.7023	157.8918	161.9129	162.9307	163.9309	0
202	24	1	1	8	451.9925	35	1	1000	2244439.4137	163.9343	 0.0147	 1.0325	 2.0503	 3.0505	0
202	24	2	1	8	447.0517	35	1	1000	2244439.4137	163.9343	 3.0681	 4.0859	 5.1036	 6.1037	0
202	24	3	1	8	679.4961	35	1	1000	2244439.4137	163.9343	 6.1381	 7.1727	 8.2071	 9.2073	0
202	24	4	1	8	682.5590	32	1	1000	2244439.4137	163.9343	 9.2249	10.2427	11.2605	12.2607	0
202	24	5	1	8	517.3298	32	1	1000	2244439.4137	163.9343	12.2782	13.2961	14.3139	15.3140	0
202	24	6	1	8	471.7047	32	1	1000	2244439.4137	163.9343	15.3317	16.3493	17.3672	18.3674	0
202	24	7	1	8	493.7720	35	1	4000	2244439.4137	163.9343	18.3850	22.4061	23.4406	24.4407	0
202	24	8	1	8	533.6795	32	1	4000	2244439.4137	163.9343	24.4584	28.4795	29.4973	30.4975	0
202	24	9	1	8	444.8407	35	1	4000	2244439.4137	163.9343	30.5151	34.5362	35.5540	36.5541	0
202	24	10	1	8	419.4532	32	1	4000	2244439.4137	163.9343	36.5885	40.6095	41.6273	42.6275	0
202	24	11	1	8	371.4521	35	1	4000	2244439.4137	163.9343	42.6451	46.6662	47.6840	48.6841	0
202	24	12	1	8	426.0676	32	1	4000	2244439.4137	163.9343	48.7018	52.7229	53.7574	54.7575	0
202	24	13	1	8	368.8743	32	1	4000	2244439.4137	163.9343	54.7752	58.7962	59.8141	60.8142	0
202	24	14	1	8	400.8353	32	1	4000	2244439.4137	163.9343	60.8318	64.8530	65.8707	66.8709	0
202	24	15	1	8	622.2483	32	1	4000	2244439.4137	163.9343	66.9052	70.9263	71.9441	72.9443	0
202	24	16	1	8	630.9302	32	1	4000	2244439.4137	163.9343	72.9619	76.9830	78.0008	79.0010	0
202	24	17	1	8	405.1487	32	1	4000	2244439.4137	163.9343	79.0186	83.0397	84.0575	85.0576	0
202	24	18	1	8	428.0460	35	1	4000	2244439.4137	163.9343	85.0753	89.0964	90.1142	91.1143	0
202	24	19	1	8	492.7627	35	1	4000	2244439.4137	163.9343	91.1320	95.1530	96.1708	97.1710	0
202	24	20	1	8	634.5563	32	1	4000	2244439.4137	163.9343	97.2053	101.2264	102.2442	103.2444	0
202	24	21	1	8	418.5105	32	1	4000	2244439.4137	163.9343	103.2620	107.2831	108.3009	109.3010	0
202	24	22	1	8	417.3400	35	1	4000	2244439.4137	163.9343	109.3187	113.3397	114.3574	115.3575	0
202	24	23	1	8	401.0320	35	1	4000	2244439.4137	163.9343	115.3754	119.3965	120.4143	121.4144	0
202	24	24	1	8	351.6736	35	1	4000	2244439.4137	163.9343	121.4320	125.4531	126.4876	127.4878	0
202	24	25	1	8	437.6122	32	1	4000	2244439.4137	163.9343	127.5221	131.5432	132.5610	133.5612	0
202	24	26	1	8	364.4199	32	1	4000	2244439.4137	163.9343	133.5788	137.5999	138.6177	139.6178	0
202	24	27	1	8	435.7890	35	1	4000	2244439.4137	163.9343	139.6355	143.6566	144.6744	145.6745	0
202	24	28	1	8	347.2422	35	1	4000	2244439.4137	163.9343	145.6922	149.7133	150.7310	151.7312	0
202	24	29	1	8	402.7615	32	1	4000	2244439.4137	163.9343	151.7488	155.7699	156.7877	157.7879	0
202	24	30	1	8	385.9412	32	1	4000	2244439.4137	163.9343	157.8222	161.8432	162.8611	163.8612	0
