SUBID	BLOCK	TRIAL	REP	RUNID	RT	RESP	ACC	RSIJIT	EV_START	EV_BLOCK	EV_TRIAL	EV_RETRIEVAL	EV_PROBE	EV_RESP	EV_BLEND
203	1	1	1	1	502.8422	35	1	1000	1787573.1411	 0.0039	 0.0281	 1.0452	 2.0630	 3.0657	0
203	1	2	1	1	434.8395	35	1	1000	1787573.1411	 0.0039	 3.0969	 4.1148	 5.1326	 6.1327	0
203	1	3	1	1	716.9868	32	1	1000	1787573.1411	 0.0039	 6.1504	 7.1681	 8.1859	 9.1861	0
203	1	4	1	1	582.0851	32	1	1000	1787573.1411	 0.0039	 9.2204	10.2549	11.2894	12.2895	0
203	1	5	1	1	520.9296	32	1	1000	1787573.1411	 0.0039	12.3072	13.3249	14.3427	15.3429	0
203	1	6	1	1	490.9879	32	1	1000	1787573.1411	 0.0039	15.3605	16.3783	17.3961	18.3963	0
203	1	7	1	1	451.3839	32	1	4000	1787573.1411	 0.0039	18.4138	22.4349	23.4528	24.4529	0
203	1	8	1	1	513.3034	32	1	4000	1787573.1411	 0.0039	24.4873	28.5083	29.5261	30.5262	0
203	1	9	1	1	432.5078	32	1	4000	1787573.1411	 0.0039	30.5440	34.5650	35.5828	36.5830	0
203	1	10	1	1	400.0897	32	1	4000	1787573.1411	 0.0039	36.6006	40.6217	41.6562	42.6563	0
203	1	11	1	1	414.3990	32	1	4000	1787573.1411	 0.0039	42.6739	46.6951	47.7129	48.7130	0
203	1	12	1	1	382.3395	35	1	4000	1787573.1411	 0.0039	48.7307	52.7517	53.7695	54.7697	0
203	1	13	1	1	499.9718	32	1	4000	1787573.1411	 0.0039	54.8041	58.8251	59.8429	60.8431	0
203	1	14	1	1	395.4315	32	1	4000	1787573.1411	 0.0039	60.8607	64.8818	65.8996	66.8998	0
203	1	15	1	1	402.8643	32	1	4000	1787573.1411	 0.0039	66.9174	70.9385	71.9730	72.9731	0
203	1	16	1	1	441.3181	32	1	4000	1787573.1411	 0.0039	72.9907	77.0119	78.0297	79.0298	0
203	1	17	1	1	457.4939	35	1	4000	1787573.1411	 0.0039	79.0474	83.0685	84.0864	85.0865	0
203	1	18	1	1	488.2594	32	1	4000	1787573.1411	 0.0039	85.1208	89.1418	90.1597	91.1598	0
203	1	19	1	1	471.1464	32	1	4000	1787573.1411	 0.0039	91.1775	95.1986	96.2164	97.2165	0
203	1	20	1	1	446.9160	35	1	4000	1787573.1411	 0.0039	97.2341	101.2553	102.2730	103.2732	0
203	1	21	1	1	382.0022	32	1	4000	1787573.1411	 0.0039	103.2909	107.3119	108.3297	109.3299	0
203	1	22	1	1	356.7364	32	1	4000	1787573.1411	 0.0039	109.3476	113.3686	114.3864	115.3866	0
203	1	23	1	1	468.2981	32	1	4000	1787573.1411	 0.0039	115.4209	119.4419	120.4598	121.4600	0
203	1	24	1	1	363.1141	32	1	4000	1787573.1411	 0.0039	121.4776	125.4987	126.5165	127.5166	0
203	1	25	1	1	369.3740	32	1	4000	1787573.1411	 0.0039	127.5343	131.5554	132.5732	133.5733	0
203	1	26	1	1	354.0460	32	1	4000	1787573.1411	 0.0039	133.5909	137.6120	138.6298	139.6300	0
203	1	27	1	1	400.0883	35	1	4000	1787573.1411	 0.0039	139.6476	143.6687	144.6865	145.6867	0
203	1	28	1	1	384.1640	32	1	4000	1787573.1411	 0.0039	145.7210	149.7421	150.7599	151.7601	0
203	1	29	1	1	550.3551	35	1	4000	1787573.1411	 0.0039	151.7777	155.7988	156.8166	157.8167	0
203	1	30	1	1	413.9595	35	1	4000	1787573.1411	 0.0039	157.8344	161.8555	162.8733	163.8734	0
203	2	1	1	1	562.8883	32	1	1000	1787573.1411	163.8773	 0.0169	 1.0347	 2.0525	 3.0526	0
203	2	2	1	1	868.0597	35	0	1000	1787573.1411	163.8773	 3.0870	 4.1046	 5.1393	 6.1394	0
203	2	3	1	1	423.0541	35	1	1000	1787573.1411	163.8773	 6.9412	 7.9590	 8.9768	 9.9770	0
203	2	4	1	1	377.2822	35	1	1000	1787573.1411	163.8773	 9.9946	11.0124	12.0302	13.0304	0
203	2	5	1	1	412.1672	32	1	1000	1787573.1411	163.8773	13.0480	14.0657	15.0836	16.0837	0
203	2	6	1	1	455.2276	35	1	1000	1787573.1411	163.8773	16.1013	17.1191	18.1369	19.1371	0
203	2	7	1	1	477.8103	32	1	4000	1787573.1411	163.8773	19.1713	23.1924	24.2102	25.2104	0
203	2	8	1	1	380.8244	35	1	4000	1787573.1411	163.8773	25.2280	29.2492	30.2670	31.2671	0
203	2	9	1	1	403.3825	35	1	4000	1787573.1411	163.8773	31.2848	35.3057	36.3403	37.3405	0
203	2	10	1	1	394.6881	35	1	4000	1787573.1411	163.8773	37.3581	41.3792	42.3970	43.3971	0
203	2	11	1	1	577.7587	32	1	4000	1787573.1411	163.8773	43.4148	47.4359	48.4537	49.4539	0
203	2	12	1	1	440.9237	32	1	4000	1787573.1411	163.8773	49.4882	53.5093	54.5271	55.5272	0
203	2	13	1	1	544.4132	32	1	4000	1787573.1411	163.8773	55.5449	59.5659	60.5837	61.5839	0
203	2	14	1	1	399.2220	35	1	4000	1787573.1411	163.8773	61.6015	65.6226	66.6571	67.6573	0
203	2	15	1	1	397.4495	35	1	4000	1787573.1411	163.8773	67.6748	71.6959	72.7137	73.7139	0
203	2	16	1	1	445.9917	32	1	4000	1787573.1411	163.8773	73.7316	77.7527	78.7705	79.7706	0
203	2	17	1	1	540.0564	32	1	4000	1787573.1411	163.8773	79.8050	83.8259	84.8439	85.8440	0
203	2	18	1	1	370.5899	32	1	4000	1787573.1411	163.8773	85.8616	89.8827	90.9005	91.9006	0
203	2	19	1	1	418.2821	32	1	4000	1787573.1411	163.8773	91.9182	95.9393	96.9739	97.9740	0
203	2	20	1	1	424.9909	35	1	4000	1787573.1411	163.8773	97.9917	102.0128	103.0306	104.0307	0
203	2	21	1	1	647.7639	32	1	4000	1787573.1411	163.8773	104.0484	108.0695	109.0873	110.0874	0
203	2	22	1	1	551.1762	35	0	4000	1787573.1411	163.8773	110.1218	114.1428	115.1606	116.1608	0
203	2	23	1	1	559.8098	32	1	4000	1787573.1411	163.8773	116.9459	120.9670	121.9848	122.9850	0
203	2	24	1	1	550.3573	32	1	4000	1787573.1411	163.8773	123.0193	127.0404	128.0582	129.0584	0
203	2	25	1	1	509.3537	32	1	4000	1787573.1411	163.8773	129.0760	133.0971	134.1147	135.1150	0
203	2	26	1	1	555.6799	32	1	4000	1787573.1411	163.8773	135.1326	139.1536	140.1716	141.1717	0
203	2	27	1	1	426.0942	32	1	4000	1787573.1411	163.8773	141.2060	145.2271	146.2449	147.2450	0
203	2	28	1	1	593.6275	32	1	4000	1787573.1411	163.8773	147.2627	151.2838	152.3016	153.3017	0
203	2	29	1	1	465.2920	32	1	4000	1787573.1411	163.8773	153.3194	157.3405	158.3583	159.3584	0
203	2	30	1	1	601.5648	32	1	4000	1787573.1411	163.8773	159.3761	163.3972	164.4150	165.4151	0
203	3	1	1	1	549.0444	35	1	1000	1787573.1411	165.4186	 0.0153	 1.0331	 2.0510	 3.0511	0
203	3	2	1	1	543.3552	35	1	1000	1787573.1411	165.4186	 3.0687	 4.0865	 5.1043	 6.1045	0
203	3	3	1	1	393.7385	35	1	1000	1787573.1411	165.4186	 6.1221	 7.1399	 8.1577	 9.1579	0
203	3	4	1	1	692.0501	35	1	1000	1787573.1411	165.4186	 9.1755	10.1932	11.2111	12.2112	0
203	3	5	1	1	1000.0143	1	0	1000	1787573.1411	165.4186	12.2455	13.2799	14.3145	15.3153	0
203	3	6	1	1	433.0657	35	1	1000	1787573.1411	165.4186	16.0998	17.1176	18.1354	19.1355	0
203	3	7	1	1	400.4289	35	1	4000	1787573.1411	165.4186	19.1531	23.1743	24.1920	25.1921	0
203	3	8	1	1	407.6845	35	1	4000	1787573.1411	165.4186	25.2098	29.2309	30.2487	31.2489	0
203	3	9	1	1	438.1549	32	1	4000	1787573.1411	165.4186	31.2665	35.2876	36.3054	37.3055	0
203	3	10	1	1	397.7225	35	1	4000	1787573.1411	165.4186	37.3231	41.3443	42.3621	43.3622	0
203	3	11	1	1	572.5276	32	1	4000	1787573.1411	165.4186	43.3966	47.4177	48.4354	49.4356	0
203	3	12	1	1	515.8865	35	1	4000	1787573.1411	165.4186	49.4532	53.4743	54.4922	55.4923	0
203	3	13	1	1	467.0020	32	1	4000	1787573.1411	165.4186	55.5099	59.5310	60.5488	61.5490	0
203	3	14	1	1	386.3727	35	1	4000	1787573.1411	165.4186	61.5666	65.5877	66.6055	67.6057	0
203	3	15	1	1	489.6442	32	1	4000	1787573.1411	165.4186	67.6233	71.6444	72.6622	73.6623	0
203	3	16	1	1	424.3710	32	1	4000	1787573.1411	165.4186	73.6967	77.7178	78.7356	79.7357	0
203	3	17	1	1	887.4417	32	1	4000	1787573.1411	165.4186	79.7533	83.7744	84.7922	85.7924	0
203	3	18	1	1	423.4858	35	1	4000	1787573.1411	165.4186	85.8100	89.8311	90.8489	91.8491	0
203	3	19	1	1	374.1576	35	1	4000	1787573.1411	165.4186	91.8667	95.8877	96.9056	97.9057	0
203	3	20	1	1	365.1354	35	1	4000	1787573.1411	165.4186	97.9233	101.9445	102.9623	103.9625	0
203	3	21	1	1	420.4253	32	1	4000	1787573.1411	165.4186	103.9968	108.0179	109.0356	110.0358	0
203	3	22	1	1	427.4385	32	1	4000	1787573.1411	165.4186	110.0535	114.0744	115.0923	116.0925	0
203	3	23	1	1	450.0567	35	1	4000	1787573.1411	165.4186	116.1101	120.1312	121.1490	122.1491	0
203	3	24	1	1	426.4510	35	1	4000	1787573.1411	165.4186	122.1668	126.1879	127.2057	128.2058	0
203	3	25	1	1	553.4551	32	1	4000	1787573.1411	165.4186	128.2235	132.2445	133.2624	134.2625	0
203	3	26	1	1	480.2233	32	1	4000	1787573.1411	165.4186	134.2968	138.3179	139.3356	140.3357	0
203	3	27	1	1	663.4565	32	1	4000	1787573.1411	165.4186	140.3535	144.3746	145.3924	146.3926	0
203	3	28	1	1	637.3047	32	1	4000	1787573.1411	165.4186	146.4269	150.4480	151.4658	152.4660	0
203	3	29	1	1	413.9054	32	1	4000	1787573.1411	165.4186	152.4836	156.5047	157.5225	158.5226	0
203	3	30	1	1	380.2371	32	1	4000	1787573.1411	165.4186	158.5402	162.5614	163.5792	164.5793	0
SUBID	BLOCK	TRIAL	REP	RUNID	RT	RESP	ACC	RSIJIT	EV_START	EV_BLOCK	EV_TRIAL	EV_RETRIEVAL	EV_PROBE	EV_RESP	EV_BLEND
203	4	1	1	2	547.9449	32	1	1000	1788215.6051	 0.0039	 0.0366	 1.0705	 2.1048	 3.1074	0
203	4	2	1	2	408.7320	35	1	1000	1788215.6051	 0.0039	 3.1220	 4.1399	 5.1577	 6.1579	0
203	4	3	1	2	412.0447	32	1	1000	1788215.6051	 0.0039	 6.1755	 7.1933	 8.2109	 9.2111	0
203	4	4	1	2	454.6852	32	1	1000	1788215.6051	 0.0039	 9.2289	10.2465	11.2645	12.2646	0
203	4	5	1	2	384.6960	32	0	1000	1788215.6051	 0.0039	12.2822	13.3000	14.3178	15.3180	0
203	4	6	1	2	426.0627	32	1	1000	1788215.6051	 0.0039	16.1365	17.1710	18.1888	19.1889	0
203	4	7	1	2	528.3112	32	1	4000	1788215.6051	 0.0039	19.2066	23.2276	24.2455	25.2456	0
203	4	8	1	2	368.8983	35	1	4000	1788215.6051	 0.0039	25.2632	29.2844	30.3022	31.3023	0
203	4	9	1	2	383.2381	35	1	4000	1788215.6051	 0.0039	31.3365	35.3577	36.3755	37.3757	0
203	4	10	1	2	422.8172	35	1	4000	1788215.6051	 0.0039	37.3933	41.4144	42.4322	43.4323	0
203	4	11	1	2	388.8655	32	1	4000	1788215.6051	 0.0039	43.4666	47.4878	48.5056	49.5057	0
203	4	12	1	2	348.4267	35	1	4000	1788215.6051	 0.0039	49.5233	53.5445	54.5622	55.5624	0
203	4	13	1	2	364.2490	35	1	4000	1788215.6051	 0.0039	55.5800	59.6011	60.6189	61.6191	0
203	4	14	1	2	417.8036	32	1	4000	1788215.6051	 0.0039	61.6534	65.6745	66.6923	67.6925	0
203	4	15	1	2	385.9723	32	1	4000	1788215.6051	 0.0039	67.7101	71.7312	72.7490	73.7491	0
203	4	16	1	2	463.9231	32	1	4000	1788215.6051	 0.0039	73.7834	77.8045	78.8223	79.8225	0
203	4	17	1	2	479.3452	32	1	4000	1788215.6051	 0.0039	79.8401	83.8612	84.8790	85.8792	0
203	4	18	1	2	366.8364	35	1	4000	1788215.6051	 0.0039	85.8968	89.9179	90.9357	91.9358	0
203	4	19	1	2	477.4550	35	1	4000	1788215.6051	 0.0039	91.9701	95.9913	97.0091	98.0092	0
203	4	20	1	2	373.3736	35	1	4000	1788215.6051	 0.0039	98.0268	102.0480	103.0658	104.0659	0
203	4	21	1	2	418.9456	32	1	4000	1788215.6051	 0.0039	104.1002	108.1213	109.1391	110.1393	0
203	4	22	1	2	409.9819	32	1	4000	1788215.6051	 0.0039	110.1569	114.1780	115.1958	116.1959	0
203	4	23	1	2	345.1438	35	1	4000	1788215.6051	 0.0039	116.2135	120.2347	121.2525	122.2527	0
203	4	24	1	2	353.2442	35	1	4000	1788215.6051	 0.0039	122.2870	126.3081	127.3258	128.3260	0
203	4	25	1	2	432.5216	32	1	4000	1788215.6051	 0.0039	128.3437	132.3647	133.3825	134.3827	0
203	4	26	1	2	406.0168	35	1	4000	1788215.6051	 0.0039	134.4170	138.4381	139.4559	140.4560	0
203	4	27	1	2	421.6021	32	1	4000	1788215.6051	 0.0039	140.4737	144.4947	145.5126	146.5127	0
203	4	28	1	2	405.1401	35	1	4000	1788215.6051	 0.0039	146.5303	150.5515	151.5693	152.5694	0
203	4	29	1	2	347.5372	35	1	4000	1788215.6051	 0.0039	152.6038	156.6248	157.6426	158.6428	0
203	4	30	1	2	379.4125	32	1	4000	1788215.6051	 0.0039	158.6604	162.6815	163.6993	164.6994	0
203	5	1	1	2	444.5661	32	1	1000	1788215.6051	164.7034	 0.0073	 1.0253	 2.0431	 3.0432	0
203	5	2	1	2	461.8127	35	1	1000	1788215.6051	164.7034	 3.0609	 4.0786	 5.0964	 6.0966	0
203	5	3	1	2	784.6473	32	1	1000	1788215.6051	164.7034	 6.1142	 7.1320	 8.1498	 9.1500	0
203	5	4	1	2	370.5937	35	1	1000	1788215.6051	164.7034	 9.1842	10.2187	11.2532	12.2534	0
203	5	5	1	2	356.8978	35	1	1000	1788215.6051	164.7034	12.2710	13.2888	14.3066	15.3067	0
203	5	6	1	2	375.0247	32	1	1000	1788215.6051	164.7034	15.3244	16.3422	17.3600	18.3601	0
203	5	7	1	2	342.3728	35	1	4000	1788215.6051	164.7034	18.3777	22.3989	23.4167	24.4168	0
203	5	8	1	2	397.2006	35	1	4000	1788215.6051	164.7034	24.4510	28.4723	29.4900	30.4901	0
203	5	9	1	2	468.9160	32	1	4000	1788215.6051	164.7034	30.5078	34.5289	35.5467	36.5468	0
203	5	10	1	2	419.2606	32	1	4000	1788215.6051	164.7034	36.5645	40.5855	41.6201	42.6202	0
203	5	11	1	2	370.1406	35	1	4000	1788215.6051	164.7034	42.6379	46.6589	47.6767	48.6769	0
203	5	12	1	2	385.8089	32	1	4000	1788215.6051	164.7034	48.6945	52.7156	53.7334	54.7336	0
203	5	13	1	2	368.6154	35	1	4000	1788215.6051	164.7034	54.7679	58.7890	59.8068	60.8069	0
203	5	14	1	2	384.0079	35	1	4000	1788215.6051	164.7034	60.8245	64.8457	65.8635	66.8636	0
203	5	15	1	2	373.6527	35	1	4000	1788215.6051	164.7034	66.8813	70.9024	71.9368	72.9370	0
203	5	16	1	2	380.7245	32	1	4000	1788215.6051	164.7034	72.9547	76.9758	77.9935	78.9937	0
203	5	17	1	2	445.4782	35	1	4000	1788215.6051	164.7034	79.0113	83.0324	84.0502	85.0503	0
203	5	18	1	2	434.8661	32	1	4000	1788215.6051	164.7034	85.0847	89.1058	90.1236	91.1237	0
203	5	19	1	2	475.2367	35	0	4000	1788215.6051	164.7034	91.1414	95.1625	96.1803	97.1804	0
203	5	20	1	2	473.9099	35	1	4000	1788215.6051	164.7034	97.9822	102.0033	103.0212	104.0213	0
203	5	21	1	2	432.8532	32	1	4000	1788215.6051	164.7034	104.0389	108.0600	109.0778	110.0779	0
203	5	22	1	2	665.3050	35	1	4000	1788215.6051	164.7034	110.0956	114.1167	115.1345	116.1346	0
203	5	23	1	2	559.6293	32	1	4000	1788215.6051	164.7034	116.1690	120.1900	121.2079	122.2080	0
203	5	24	1	2	414.2437	35	1	4000	1788215.6051	164.7034	122.2257	126.2468	127.2645	128.2647	0
203	5	25	1	2	492.8621	32	1	4000	1788215.6051	164.7034	128.2990	132.3201	133.3379	134.3381	0
203	5	26	1	2	412.2142	32	1	4000	1788215.6051	164.7034	134.3557	138.3768	139.3946	140.3948	0
203	5	27	1	2	628.4965	35	1	4000	1788215.6051	164.7034	140.4124	144.4334	145.4513	146.4515	0
203	5	28	1	2	418.3323	35	1	4000	1788215.6051	164.7034	146.4858	150.5069	151.5246	152.5248	0
203	5	29	1	2	385.1019	32	1	4000	1788215.6051	164.7034	152.5424	156.5635	157.5813	158.5815	0
203	5	30	1	2	377.1476	32	1	4000	1788215.6051	164.7034	158.5991	162.6202	163.6380	164.6381	0
203	6	1	1	2	680.7630	32	1	1000	1788215.6051	164.6416	 0.0269	 1.0447	 2.0625	 3.0626	0
203	6	2	1	2	786.9056	32	1	1000	1788215.6051	164.6416	 3.0970	 4.1147	 5.1325	 6.1327	0
203	6	3	1	2	380.0185	35	1	1000	1788215.6051	164.6416	 6.1670	 7.2015	 8.2193	 9.2194	0
203	6	4	1	2	590.9564	35	1	1000	1788215.6051	164.6416	 9.2370	10.2547	11.2726	12.2728	0
203	6	5	1	2	609.1168	35	1	1000	1788215.6051	164.6416	12.2904	13.3082	14.3260	15.3262	0
203	6	6	1	2	380.1152	35	1	1000	1788215.6051	164.6416	15.3438	16.3616	17.3794	18.3795	0
203	6	7	1	2	483.1556	35	1	4000	1788215.6051	164.6416	18.4139	22.4350	23.4526	24.4527	0
203	6	8	1	2	402.0522	35	1	4000	1788215.6051	164.6416	24.4705	28.4916	29.5094	30.5096	0
203	6	9	1	2	400.9035	32	1	4000	1788215.6051	164.6416	30.5272	34.5483	35.5661	36.5663	0
203	6	10	1	2	480.4729	35	1	4000	1788215.6051	164.6416	36.6006	40.6217	41.6395	42.6397	0
203	6	11	1	2	415.2450	35	1	4000	1788215.6051	164.6416	42.6573	46.6784	47.6962	48.6963	0
203	6	12	1	2	453.6115	32	1	4000	1788215.6051	164.6416	48.7306	52.7517	53.7695	54.7697	0
203	6	13	1	2	412.5107	35	1	4000	1788215.6051	164.6416	54.7873	58.8084	59.8262	60.8263	0
203	6	14	1	2	372.3813	35	1	4000	1788215.6051	164.6416	60.8440	64.8651	65.8829	66.8831	0
203	6	15	1	2	363.8904	35	1	4000	1788215.6051	164.6416	66.9174	70.9384	71.9561	72.9562	0
203	6	16	1	2	418.3471	32	1	4000	1788215.6051	164.6416	72.9740	76.9952	78.0129	79.0131	0
203	6	17	1	2	473.7115	32	1	4000	1788215.6051	164.6416	79.0474	83.0518	84.0696	85.0697	0
203	6	18	1	2	385.6531	35	1	4000	1788215.6051	164.6416	85.0874	89.1085	90.1263	91.1265	0
203	6	19	1	2	376.7868	32	1	4000	1788215.6051	164.6416	91.1441	95.1652	96.1830	97.1831	0
203	6	20	1	2	391.5384	35	1	4000	1788215.6051	164.6416	97.2175	101.2386	102.2564	103.2565	0
203	6	21	1	2	414.3734	32	1	4000	1788215.6051	164.6416	103.2741	107.2952	108.3130	109.3132	0
203	6	22	1	2	405.6384	32	1	4000	1788215.6051	164.6416	109.3475	113.3518	114.3697	115.3699	0
203	6	23	1	2	413.0766	32	1	4000	1788215.6051	164.6416	115.3875	119.4086	120.4264	121.4265	0
203	6	24	1	2	395.5990	32	1	4000	1788215.6051	164.6416	121.4442	125.4652	126.4831	127.4832	0
203	6	25	1	2	683.7374	35	1	4000	1788215.6051	164.6416	127.5176	131.5387	132.5564	133.5566	0
203	6	26	1	2	378.7960	32	1	4000	1788215.6051	164.6416	133.5743	137.5953	138.6131	139.6133	0
203	6	27	1	2	400.5100	32	1	4000	1788215.6051	164.6416	139.6476	143.6687	144.6865	145.6866	0
203	6	28	1	2	432.3250	35	1	4000	1788215.6051	164.6416	145.7043	149.7254	150.7431	151.7433	0
203	6	29	1	2	511.4695	32	1	4000	1788215.6051	164.6416	151.7610	155.7821	156.7999	157.8000	0
203	6	30	1	2	446.3953	35	1	4000	1788215.6051	164.6416	157.8344	161.8554	162.8732	163.8734	0
SUBID	BLOCK	TRIAL	REP	RUNID	RT	RESP	ACC	RSIJIT	EV_START	EV_BLOCK	EV_TRIAL	EV_RETRIEVAL	EV_PROBE	EV_RESP	EV_BLEND
203	7	1	1	3	383.6540	35	1	1000	1788843.9170	 0.0039	 0.0261	 1.0600	 2.0777	 3.0803	0
203	7	2	1	3	515.4873	32	1	1000	1788843.9170	 0.0039	 3.1118	 4.1296	 5.1474	 6.1475	0
203	7	3	1	3	612.9831	35	1	1000	1788843.9170	 0.0039	 6.1651	 7.1829	 8.2007	 9.2009	0
203	7	4	1	3	383.3658	35	1	1000	1788843.9170	 0.0039	 9.2351	10.2697	11.2875	12.2876	0
203	7	5	1	3	433.4531	32	1	1000	1788843.9170	 0.0039	12.3052	13.3230	14.3408	15.3410	0
203	7	6	1	3	572.9161	32	1	1000	1788843.9170	 0.0039	15.3586	16.3764	17.3942	18.3944	0
203	7	7	1	3	395.5479	35	1	4000	1788843.9170	 0.0039	18.4120	22.4331	23.4509	24.4511	0
203	7	8	1	3	561.8159	32	1	4000	1788843.9170	 0.0039	24.4853	28.5064	29.5242	30.5244	0
203	7	9	1	3	609.4585	32	0	4000	1788843.9170	 0.0039	30.5420	34.5631	35.5809	36.5811	0
203	7	10	1	3	543.5690	32	1	4000	1788843.9170	 0.0039	37.3829	41.4207	42.4384	43.4385	0
203	7	11	1	3	399.3836	35	1	4000	1788843.9170	 0.0039	43.4563	47.4774	48.4952	49.4953	0
203	7	12	1	3	390.3572	35	1	4000	1788843.9170	 0.0039	49.5130	53.5340	54.5519	55.5520	0
203	7	13	1	3	460.5945	32	1	4000	1788843.9170	 0.0039	55.5863	59.6074	60.6252	61.6254	0
203	7	14	1	3	348.8841	35	1	4000	1788843.9170	 0.0039	61.6430	65.6641	66.6819	67.6821	0
203	7	15	1	3	420.2058	35	1	4000	1788843.9170	 0.0039	67.7164	71.7207	72.7386	73.7388	0
203	7	16	1	3	395.4999	32	1	4000	1788843.9170	 0.0039	73.7564	77.7775	78.7953	79.7954	0
203	7	17	1	3	435.2241	32	1	4000	1788843.9170	 0.0039	79.8131	83.8341	84.8519	85.8521	0
203	7	18	1	3	401.3825	32	1	4000	1788843.9170	 0.0039	85.8864	89.9075	90.9253	91.9255	0
203	7	19	1	3	392.1315	35	1	4000	1788843.9170	 0.0039	91.9431	95.9642	96.9820	97.9822	0
203	7	20	1	3	391.9064	35	1	4000	1788843.9170	 0.0039	98.0165	102.0209	103.0387	104.0388	0
203	7	21	1	3	406.7708	32	1	4000	1788843.9170	 0.0039	104.0565	108.0776	109.0954	110.0955	0
203	7	22	1	3	541.8225	32	1	4000	1788843.9170	 0.0039	110.1132	114.1342	115.1521	116.1522	0
203	7	23	1	3	525.8863	32	1	4000	1788843.9170	 0.0039	116.1865	120.2076	121.2253	122.2254	0
203	7	24	1	3	411.9083	32	1	4000	1788843.9170	 0.0039	122.2432	126.2643	127.2821	128.2823	0
203	7	25	1	3	395.0912	32	1	4000	1788843.9170	 0.0039	128.3165	132.3376	133.3554	134.3556	0
203	7	26	1	3	394.0159	35	1	4000	1788843.9170	 0.0039	134.3731	138.3943	139.4122	140.4123	0
203	7	27	1	3	425.9360	32	1	4000	1788843.9170	 0.0039	140.4299	144.4510	145.4688	146.4689	0
203	7	28	1	3	544.4885	35	1	4000	1788843.9170	 0.0039	146.5033	150.5244	151.5422	152.5424	0
203	7	29	1	3	527.5317	35	1	4000	1788843.9170	 0.0039	152.5600	156.5811	157.5989	158.5990	0
203	7	30	1	3	422.0559	35	1	4000	1788843.9170	 0.0039	158.6334	162.6376	163.6556	164.6557	0
203	8	1	1	3	661.8760	32	1	1000	1788843.9170	164.6597	 0.0134	 1.0309	 2.0488	 3.0489	0
203	8	2	1	3	487.7080	35	1	1000	1788843.9170	164.6597	 3.0832	 4.1177	 5.1355	 6.1356	0
203	8	3	1	3	569.4054	35	1	1000	1788843.9170	164.6597	 6.1699	 7.1878	 8.2056	 9.2057	0
203	8	4	1	3	500.5430	32	1	1000	1788843.9170	164.6597	 9.2233	10.2411	11.2588	12.2590	0
203	8	5	1	3	462.9601	35	1	1000	1788843.9170	164.6597	12.2767	13.2945	14.3123	15.3125	0
203	8	6	1	3	592.3754	32	1	1000	1788843.9170	164.6597	15.3301	16.3479	17.3656	18.3657	0
203	8	7	1	3	920.3965	32	1	4000	1788843.9170	164.6597	18.4002	22.4212	23.4390	24.4392	0
203	8	8	1	3	454.4385	32	0	4000	1788843.9170	164.6597	24.4568	28.4779	29.4957	30.4958	0
203	8	9	1	3	654.2131	35	1	4000	1788843.9170	164.6597	31.2977	35.3188	36.3533	37.3534	0
203	8	10	1	3	436.5468	32	1	4000	1788843.9170	164.6597	37.3711	41.3922	42.4099	43.4101	0
203	8	11	1	3	387.9146	35	1	4000	1788843.9170	164.6597	43.4278	47.4489	48.4666	49.4668	0
203	8	12	1	3	715.4345	32	1	4000	1788843.9170	164.6597	49.5011	53.5222	54.5400	55.5402	0
203	8	13	1	3	753.7739	32	1	4000	1788843.9170	164.6597	55.5578	59.5789	60.5967	61.5968	0
203	8	14	1	3	481.3004	35	1	4000	1788843.9170	164.6597	61.6145	65.6356	66.6701	67.6702	0
203	8	15	1	3	504.0489	35	1	4000	1788843.9170	164.6597	67.6878	71.7089	72.7267	73.7269	0
203	8	16	1	3	414.7932	32	1	4000	1788843.9170	164.6597	73.7445	77.7656	78.7834	79.7836	0
203	8	17	1	3	581.6340	35	1	4000	1788843.9170	164.6597	79.8179	83.8390	84.8568	85.8569	0
203	8	18	1	3	373.8365	35	1	4000	1788843.9170	164.6597	85.8746	89.8957	90.9135	91.9136	0
203	8	19	1	3	788.3408	32	1	4000	1788843.9170	164.6597	91.9313	95.9524	96.9869	97.9870	0
203	8	20	1	3	466.9860	32	1	4000	1788843.9170	164.6597	98.0046	102.0257	103.0435	104.0437	0
203	8	21	1	3	409.3314	35	1	4000	1788843.9170	164.6597	104.0613	108.0991	109.1169	110.1170	0
203	8	22	1	3	975.8493	32	1	4000	1788843.9170	164.6597	110.1514	114.1725	115.1903	116.1904	0
203	8	23	1	3	511.8975	32	1	4000	1788843.9170	164.6597	116.2080	120.2292	121.2470	122.2471	0
203	8	24	1	3	430.1907	32	1	4000	1788843.9170	164.6597	122.2647	126.2858	127.3203	128.3205	0
203	8	25	1	3	565.1874	32	1	4000	1788843.9170	164.6597	128.3381	132.3592	133.3770	134.3771	0
203	8	26	1	3	405.7059	32	1	4000	1788843.9170	164.6597	134.3948	138.4158	139.4337	140.4339	0
203	8	27	1	3	507.8635	35	1	4000	1788843.9170	164.6597	140.4681	144.4893	145.5070	146.5072	0
203	8	28	1	3	538.4129	35	1	4000	1788843.9170	164.6597	146.5249	150.5459	151.5637	152.5638	0
203	8	29	1	3	506.2298	35	1	4000	1788843.9170	164.6597	152.5815	156.6026	157.6371	158.6372	0
203	8	30	1	3	401.6054	35	1	4000	1788843.9170	164.6597	158.6548	162.6759	163.6938	164.6939	0
203	9	1	1	3	1000.1556	1	0	1000	1788843.9170	164.6974	 0.0200	 1.0544	 2.0723	 3.0732	0
203	9	2	1	3	433.8168	35	1	1000	1788843.9170	164.6974	 3.8575	 4.8753	 5.8931	 6.8933	0
203	9	3	1	3	404.3870	35	1	1000	1788843.9170	164.6974	 6.9109	 7.9287	 8.9465	 9.9466	0
203	9	4	1	3	358.5315	35	1	1000	1788843.9170	164.6974	 9.9643	10.9820	11.9998	13.0000	0
203	9	5	1	3	361.2691	35	1	1000	1788843.9170	164.6974	13.0343	14.0520	15.0699	16.0701	0
203	9	6	1	3	475.0832	32	1	1000	1788843.9170	164.6974	16.1044	17.1222	18.1400	19.1401	0
203	9	7	1	3	442.3136	32	1	4000	1788843.9170	164.6974	19.1577	23.1789	24.1967	25.1968	0
203	9	8	1	3	473.7795	35	1	4000	1788843.9170	164.6974	25.2144	29.2355	30.2533	31.2535	0
203	9	9	1	3	375.1941	35	1	4000	1788843.9170	164.6974	31.2878	35.3089	36.3267	37.3268	0
203	9	10	1	3	391.5112	35	1	4000	1788843.9170	164.6974	37.3445	41.3656	42.3834	43.3835	0
203	9	11	1	3	414.1635	35	1	4000	1788843.9170	164.6974	43.4178	47.4389	48.4567	49.4569	0
203	9	12	1	3	405.9504	32	1	4000	1788843.9170	164.6974	49.4745	53.4955	54.5134	55.5135	0
203	9	13	1	3	421.2978	32	1	4000	1788843.9170	164.6974	55.5312	59.5523	60.5700	61.5701	0
203	9	14	1	3	427.2365	32	1	4000	1788843.9170	164.6974	61.6046	65.6257	66.6435	67.6436	0
203	9	15	1	3	386.1745	35	1	4000	1788843.9170	164.6974	67.6613	71.6824	72.7001	73.7003	0
203	9	16	1	3	385.4056	32	1	4000	1788843.9170	164.6974	73.7345	77.7557	78.7735	79.7737	0
203	9	17	1	3	512.6448	35	0	4000	1788843.9170	164.6974	79.7913	83.8124	84.8302	85.8303	0
203	9	18	1	3	390.4579	32	1	4000	1788843.9170	164.6974	86.6322	90.6533	91.6878	92.6880	0
203	9	19	1	3	613.3758	35	1	4000	1788843.9170	164.6974	92.7056	96.7266	97.7445	98.7446	0
203	9	20	1	3	397.4391	35	1	4000	1788843.9170	164.6974	98.7622	102.7834	103.8011	104.8013	0
203	9	21	1	3	452.5703	32	1	4000	1788843.9170	164.6974	104.8356	108.8567	109.8745	110.8746	0
203	9	22	1	3	603.8767	32	1	4000	1788843.9170	164.6974	110.8923	114.9134	115.9312	116.9313	0
203	9	23	1	3	393.9221	32	1	4000	1788843.9170	164.6974	116.9490	120.9701	122.0045	123.0047	0
203	9	24	1	3	441.7157	32	1	4000	1788843.9170	164.6974	123.0222	127.0434	128.0612	129.0614	0
203	9	25	1	3	671.8966	35	1	4000	1788843.9170	164.6974	129.0790	133.1001	134.1179	135.1181	0
203	9	26	1	3	391.6890	35	1	4000	1788843.9170	164.6974	135.1524	139.1735	140.1913	141.1914	0
203	9	27	1	3	382.8430	32	1	4000	1788843.9170	164.6974	141.2091	145.2302	146.2479	147.2481	0
203	9	28	1	3	372.7735	32	1	4000	1788843.9170	164.6974	147.2657	151.2868	152.3213	153.3215	0
203	9	29	1	3	404.4431	32	1	4000	1788843.9170	164.6974	153.3391	157.3602	158.3780	159.3782	0
203	9	30	1	3	379.2255	32	1	4000	1788843.9170	164.6974	159.3957	163.4169	164.4347	165.4348	0
SUBID	BLOCK	TRIAL	REP	RUNID	RT	RESP	ACC	RSIJIT	EV_START	EV_BLOCK	EV_TRIAL	EV_RETRIEVAL	EV_PROBE	EV_RESP	EV_BLEND
203	10	1	1	4	400.5843	35	1	1000	1789527.6206	 0.0037	 0.0253	 1.0592	 2.0769	 3.0795	0
203	10	2	1	4	619.3947	32	1	1000	1789527.6206	 0.0037	 3.1109	 4.1454	 5.1798	 6.1800	0
203	10	3	1	4	429.2591	35	1	1000	1789527.6206	 0.0037	 6.2145	 7.2321	 8.2499	 9.2501	0
203	10	4	1	4	463.4369	32	1	1000	1789527.6206	 0.0037	 9.2677	10.2854	11.3033	12.3034	0
203	10	5	1	4	355.0511	32	1	1000	1789527.6206	 0.0037	12.3210	13.3389	14.3566	15.3568	0
203	10	6	1	4	389.3640	32	1	1000	1789527.6206	 0.0037	15.3745	16.3921	17.4100	18.4101	0
203	10	7	1	4	635.8093	35	1	4000	1789527.6206	 0.0037	18.4445	22.4656	23.4834	24.4835	0
203	10	8	1	4	410.9502	35	1	4000	1789527.6206	 0.0037	24.5011	28.5223	29.5401	30.5402	0
203	10	9	1	4	377.9838	32	1	4000	1789527.6206	 0.0037	30.5578	34.5790	35.6134	36.6135	0
203	10	10	1	4	399.8257	35	1	4000	1789527.6206	 0.0037	36.6479	40.6690	41.6868	42.6870	0
203	10	11	1	4	416.6092	32	1	4000	1789527.6206	 0.0037	42.7046	46.7257	47.7435	48.7436	0
203	10	12	1	4	430.4220	32	1	4000	1789527.6206	 0.0037	48.7778	52.7990	53.8168	54.8169	0
203	10	13	1	4	389.7714	35	1	4000	1789527.6206	 0.0037	54.8346	58.8557	59.8736	60.8737	0
203	10	14	1	4	365.5905	35	1	4000	1789527.6206	 0.0037	60.8913	64.9124	65.9301	66.9302	0
203	10	15	1	4	380.2094	35	1	4000	1789527.6206	 0.0037	66.9647	70.9858	72.0036	73.0038	0
203	10	16	1	4	395.6945	35	1	4000	1789527.6206	 0.0037	73.0214	77.0424	78.0603	79.0604	0
203	10	17	1	4	393.7606	32	1	4000	1789527.6206	 0.0037	79.0948	83.1158	84.1336	85.1338	0
203	10	18	1	4	392.6093	32	1	4000	1789527.6206	 0.0037	85.1514	89.1725	90.1903	91.1905	0
203	10	19	1	4	367.3378	35	1	4000	1789527.6206	 0.0037	91.2081	95.2292	96.2637	97.2638	0
203	10	20	1	4	381.7738	32	1	4000	1789527.6206	 0.0037	97.2982	101.3193	102.3370	103.3372	0
203	10	21	1	4	365.6343	35	0	4000	1789527.6206	 0.0037	103.3549	107.3759	108.3938	109.3939	0
203	10	22	1	4	459.5658	35	1	4000	1789527.6206	 0.0037	110.2124	114.2335	115.2513	116.2514	0
203	10	23	1	4	467.6089	32	1	4000	1789527.6206	 0.0037	116.2691	120.2902	121.3079	122.3081	0
203	10	24	1	4	393.6467	35	1	4000	1789527.6206	 0.0037	122.3258	126.3468	127.3813	128.3815	0
203	10	25	1	4	626.0313	35	1	4000	1789527.6206	 0.0037	128.3991	132.4202	133.4380	134.4382	0
203	10	26	1	4	601.0039	35	1	4000	1789527.6206	 0.0037	134.4558	138.4769	139.4947	140.4949	0
203	10	27	1	4	406.9264	35	1	4000	1789527.6206	 0.0037	140.5292	144.5503	145.5681	146.5682	0
203	10	28	1	4	382.6068	35	1	4000	1789527.6206	 0.0037	146.5859	150.6070	151.6248	152.6249	0
203	10	29	1	4	405.1397	32	1	4000	1789527.6206	 0.0037	152.6425	156.6637	157.6981	158.6983	0
203	10	30	1	4	380.7781	32	1	4000	1789527.6206	 0.0037	158.7159	162.7370	163.7548	164.7550	0
203	11	1	1	4	369.5277	35	1	1000	1789527.6206	164.7588	 0.0262	 1.0440	 2.0618	 3.0620	0
203	11	2	1	4	354.1141	35	1	1000	1789527.6206	164.7588	 3.0962	 4.1307	 5.1485	 6.1487	0
203	11	3	1	4	357.2195	32	1	1000	1789527.6206	164.7588	 6.1663	 7.1841	 8.2019	 9.2020	0
203	11	4	1	4	350.9679	35	1	1000	1789527.6206	164.7588	 9.2197	10.2375	11.2553	12.2554	0
203	11	5	1	4	345.3193	35	1	1000	1789527.6206	164.7588	12.2730	13.2908	14.3086	15.3088	0
203	11	6	1	4	388.4644	35	1	1000	1789527.6206	164.7588	15.3264	16.3442	17.3619	18.3621	0
203	11	7	1	4	386.9316	35	1	4000	1789527.6206	164.7588	18.3964	22.4176	23.4354	24.4355	0
203	11	8	1	4	338.0757	35	1	4000	1789527.6206	164.7588	24.4532	28.4742	29.4920	30.4922	0
203	11	9	1	4	432.4392	32	1	4000	1789527.6206	164.7588	30.5265	34.5476	35.5654	36.5656	0
203	11	10	1	4	328.4016	35	1	4000	1789527.6206	164.7588	36.5831	40.6043	41.6221	42.6222	0
203	11	11	1	4	423.9268	35	1	4000	1789527.6206	164.7588	42.6399	46.6610	47.6788	48.6790	0
203	11	12	1	4	414.2395	35	1	4000	1789527.6206	164.7588	48.7133	52.7343	53.7521	54.7523	0
203	11	13	1	4	430.5694	32	1	4000	1789527.6206	164.7588	54.7700	58.7910	59.8088	60.8090	0
203	11	14	1	4	452.4164	32	1	4000	1789527.6206	164.7588	60.8266	64.8477	65.8655	66.8657	0
203	11	15	1	4	668.5296	32	1	4000	1789527.6206	164.7588	66.8833	70.9044	71.9222	72.9223	0
203	11	16	1	4	443.4936	32	1	4000	1789527.6206	164.7588	72.9400	76.9611	77.9789	78.9790	0
203	11	17	1	4	513.8507	35	1	4000	1789527.6206	164.7588	79.0134	83.0345	84.0522	85.0524	0
203	11	18	1	4	378.1831	32	1	4000	1789527.6206	164.7588	85.0700	89.0911	90.1089	91.1091	0
203	11	19	1	4	392.9435	32	1	4000	1789527.6206	164.7588	91.1434	95.1645	96.1823	97.1824	0
203	11	20	1	4	536.4276	35	1	4000	1789527.6206	164.7588	97.2001	101.2212	102.2390	103.2391	0
203	11	21	1	4	406.4026	35	1	4000	1789527.6206	164.7588	103.2568	107.2779	108.2957	109.2958	0
203	11	22	1	4	421.0292	32	1	4000	1789527.6206	164.7588	109.3300	113.3513	114.3690	115.3691	0
203	11	23	1	4	365.0714	35	1	4000	1789527.6206	164.7588	115.3867	119.4079	120.4257	121.4259	0
203	11	24	1	4	469.0547	32	1	4000	1789527.6206	164.7588	121.4435	125.4646	126.4823	127.4824	0
203	11	25	1	4	459.8222	32	1	4000	1789527.6206	164.7588	127.5002	131.5213	132.5391	133.5392	0
203	11	26	1	4	402.2554	32	1	4000	1789527.6206	164.7588	133.5569	137.5780	138.5957	139.5959	0
203	11	27	1	4	322.1323	32	1	4000	1789527.6206	164.7588	139.6302	143.6513	144.6691	145.6693	0
203	11	28	1	4	489.4547	32	1	4000	1789527.6206	164.7588	145.6869	149.7080	150.7258	151.7260	0
203	11	29	1	4	414.8187	35	1	4000	1789527.6206	164.7588	151.7603	155.7813	156.7991	157.7993	0
203	11	30	1	4	358.5398	32	1	4000	1789527.6206	164.7588	157.8169	161.8381	162.8557	163.8559	0
203	12	1	1	4	333.8375	35	1	1000	1789527.6206	163.8592	 0.0290	 1.0634	 2.0812	 3.0814	0
203	12	2	1	4	424.2388	35	1	1000	1789527.6206	163.8592	 3.1157	 4.1335	 5.1513	 6.1514	0
203	12	3	1	4	450.2946	32	1	1000	1789527.6206	163.8592	 6.1690	 7.1868	 8.2046	 9.2048	0
203	12	4	1	4	430.0294	32	1	1000	1789527.6206	163.8592	 9.2224	10.2402	11.2580	12.2581	0
203	12	5	1	4	391.4036	32	1	1000	1789527.6206	163.8592	12.2758	13.2936	14.3114	15.3115	0
203	12	6	1	4	520.1349	32	1	1000	1789527.6206	163.8592	15.3458	16.3803	17.4148	18.4150	0
203	12	7	1	4	375.3405	32	1	4000	1789527.6206	163.8592	18.4326	22.4537	23.4715	24.4716	0
203	12	8	1	4	423.8901	35	1	4000	1789527.6206	163.8592	24.4891	28.5104	29.5281	30.5283	0
203	12	9	1	4	350.3073	35	1	4000	1789527.6206	163.8592	30.5626	34.5837	35.6015	36.6016	0
203	12	10	1	4	373.7606	35	1	4000	1789527.6206	163.8592	36.6193	40.6404	41.6582	42.6583	0
203	12	11	1	4	380.0811	32	1	4000	1789527.6206	163.8592	42.6760	46.6971	47.7316	48.7317	0
203	12	12	1	4	515.5006	35	1	4000	1789527.6206	163.8592	48.7494	52.7705	53.7883	54.7884	0
203	12	13	1	4	425.7313	32	1	4000	1789527.6206	163.8592	54.8060	58.8271	59.8449	60.8451	0
203	12	14	1	4	433.5421	32	1	4000	1789527.6206	163.8592	60.8795	64.9005	65.9183	66.9184	0
203	12	15	1	4	392.6784	35	1	4000	1789527.6206	163.8592	66.9360	70.9571	71.9750	72.9751	0
203	12	16	1	4	439.2645	32	1	4000	1789527.6206	163.8592	72.9927	77.0138	78.0484	79.0485	0
203	12	17	1	4	390.0043	35	1	4000	1789527.6206	163.8592	79.0661	83.0872	84.1050	85.1052	0
203	12	18	1	4	365.4764	32	1	4000	1789527.6206	163.8592	85.1228	89.1439	90.1617	91.1619	0
203	12	19	1	4	364.1513	35	1	4000	1789527.6206	163.8592	91.1962	95.2172	96.2351	97.2352	0
203	12	20	1	4	395.5432	32	1	4000	1789527.6206	163.8592	97.2529	101.2740	102.2918	103.2919	0
203	12	21	1	4	353.6308	32	1	4000	1789527.6206	163.8592	103.3095	107.3307	108.3651	109.3652	0
203	12	22	1	4	377.6510	35	1	4000	1789527.6206	163.8592	109.3829	113.4039	114.4218	115.4220	0
203	12	23	1	4	392.1941	35	1	4000	1789527.6206	163.8592	115.4397	119.4607	120.4785	121.4786	0
203	12	24	1	4	375.4630	35	1	4000	1789527.6206	163.8592	121.5130	125.5341	126.5519	127.5520	0
203	12	25	1	4	375.1178	35	1	4000	1789527.6206	163.8592	127.5697	131.5908	132.6086	133.6087	0
203	12	26	1	4	436.9126	35	1	4000	1789527.6206	163.8592	133.6263	137.6474	138.6819	139.6820	0
203	12	27	1	4	364.1138	35	1	4000	1789527.6206	163.8592	139.6997	143.7208	144.7386	145.7387	0
203	12	28	1	4	379.2630	32	1	4000	1789527.6206	163.8592	145.7563	149.7774	150.7953	151.7954	0
203	12	29	1	4	442.9121	32	1	4000	1789527.6206	163.8592	151.8297	155.8509	156.8686	157.8688	0
203	12	30	1	4	490.9984	32	1	4000	1789527.6206	163.8592	157.8864	161.9075	162.9253	163.9254	0
SUBID	BLOCK	TRIAL	REP	RUNID	RT	RESP	ACC	RSIJIT	EV_START	EV_BLOCK	EV_TRIAL	EV_RETRIEVAL	EV_PROBE	EV_RESP	EV_BLEND
203	13	1	1	5	482.4235	32	1	1000	1790223.8204	 0.0039	 0.0241	 1.0579	 2.0757	 3.0783	0
203	13	2	1	5	438.1366	35	1	1000	1790223.8204	 0.0039	 3.1096	 4.1275	 5.1453	 6.1454	0
203	13	3	1	5	374.8236	32	1	1000	1790223.8204	 0.0039	 6.1798	 7.2142	 8.2319	 9.2321	0
203	13	4	1	5	338.2909	35	1	1000	1790223.8204	 0.0039	 9.2498	10.2676	11.2854	12.2856	0
203	13	5	1	5	388.2820	32	1	1000	1790223.8204	 0.0039	12.3032	13.3210	14.3388	15.3389	0
203	13	6	1	5	342.5118	32	1	1000	1790223.8204	 0.0039	15.3565	16.3743	17.3921	18.3923	0
203	13	7	1	5	445.2411	35	1	4000	1790223.8204	 0.0039	18.4266	22.4477	23.4655	24.4656	0
203	13	8	1	5	437.0067	35	1	4000	1790223.8204	 0.0039	24.4832	28.5044	29.5222	30.5223	0
203	13	9	1	5	435.8147	32	1	4000	1790223.8204	 0.0039	30.5399	34.5610	35.5789	36.5790	0
203	13	10	1	5	362.9342	35	1	4000	1790223.8204	 0.0039	36.6133	40.6345	41.6523	42.6524	0
203	13	11	1	5	538.3609	32	1	4000	1790223.8204	 0.0039	42.6700	46.6911	47.7089	48.7091	0
203	13	12	1	5	521.3418	35	1	4000	1790223.8204	 0.0039	48.7434	52.7645	53.7823	54.7824	0
203	13	13	1	5	399.1214	35	1	4000	1790223.8204	 0.0039	54.8000	58.8212	59.8390	60.8391	0
203	13	14	1	5	383.5111	32	1	4000	1790223.8204	 0.0039	60.8567	64.8779	65.8957	66.8958	0
203	13	15	1	5	414.2600	32	1	4000	1790223.8204	 0.0039	66.9300	70.9512	71.9690	72.9692	0
203	13	16	1	5	333.6258	32	1	4000	1790223.8204	 0.0039	72.9868	77.0079	78.0257	79.0258	0
203	13	17	1	5	396.6344	35	1	4000	1790223.8204	 0.0039	79.0602	83.0644	84.0824	85.0826	0
203	13	18	1	5	363.3613	35	1	4000	1790223.8204	 0.0039	85.1001	89.1212	90.1391	91.1392	0
203	13	19	1	5	387.2759	32	1	4000	1790223.8204	 0.0039	91.1569	95.1779	96.1957	97.1959	0
203	13	20	1	5	385.0526	32	1	4000	1790223.8204	 0.0039	97.2302	101.2514	102.2691	103.2692	0
203	13	21	1	5	345.7734	32	1	4000	1790223.8204	 0.0039	103.2869	107.3080	108.3256	109.3258	0
203	13	22	1	5	368.2098	32	1	4000	1790223.8204	 0.0039	109.3602	113.3645	114.3823	115.3825	0
203	13	23	1	5	384.3847	32	1	4000	1790223.8204	 0.0039	115.4003	119.4214	120.4392	121.4393	0
203	13	24	1	5	374.3186	35	1	4000	1790223.8204	 0.0039	121.4569	125.4779	126.4958	127.4960	0
203	13	25	1	5	406.3077	32	1	4000	1790223.8204	 0.0039	127.5303	131.5514	132.5692	133.5694	0
203	13	26	1	5	389.0666	35	1	4000	1790223.8204	 0.0039	133.5870	137.6080	138.6259	139.6260	0
203	13	27	1	5	363.6766	35	1	4000	1790223.8204	 0.0039	139.6604	143.6647	144.6826	145.6827	0
203	13	28	1	5	388.0141	32	1	4000	1790223.8204	 0.0039	145.7004	149.7215	150.7393	151.7394	0
203	13	29	1	5	363.2324	32	1	4000	1790223.8204	 0.0039	151.7570	155.7781	156.7959	157.7961	0
203	13	30	1	5	465.3957	35	1	4000	1790223.8204	 0.0039	157.8304	161.8515	162.8693	163.8694	0
203	14	1	1	5	372.2417	35	1	1000	1790223.8204	163.8735	 0.0248	 1.0425	 2.0603	 3.0605	0
203	14	2	1	5	499.4621	35	1	1000	1790223.8204	163.8735	 3.0948	 4.1293	 5.1637	 6.1639	0
203	14	3	1	5	382.9592	35	1	1000	1790223.8204	163.8735	 6.1815	 7.1993	 8.2171	 9.2173	0
203	14	4	1	5	385.3285	32	1	1000	1790223.8204	163.8735	 9.2349	10.2527	11.2705	12.2707	0
203	14	5	1	5	355.6585	32	1	1000	1790223.8204	163.8735	12.2883	13.3061	14.3238	15.3240	0
203	14	6	1	5	390.1219	32	1	1000	1790223.8204	163.8735	15.3416	16.3594	17.3772	18.3774	0
203	14	7	1	5	453.2395	32	1	4000	1790223.8204	163.8735	18.4116	22.4328	23.4506	24.4507	0
203	14	8	1	5	452.7806	32	1	4000	1790223.8204	163.8735	24.4684	28.4895	29.5073	30.5074	0
203	14	9	1	5	435.0022	35	1	4000	1790223.8204	163.8735	30.5250	34.5462	35.5806	36.5807	0
203	14	10	1	5	378.1085	32	1	4000	1790223.8204	163.8735	36.5984	40.6195	41.6373	42.6375	0
203	14	11	1	5	394.5124	32	1	4000	1790223.8204	163.8735	42.6551	46.6762	47.6940	48.6941	0
203	14	12	1	5	488.1064	35	1	4000	1790223.8204	163.8735	48.7285	52.7496	53.7674	54.7675	0
203	14	13	1	5	736.4003	32	1	4000	1790223.8204	163.8735	54.7850	58.8062	59.8240	60.8241	0
203	14	14	1	5	383.1340	32	1	4000	1790223.8204	163.8735	60.8418	64.8629	65.8974	66.8976	0
203	14	15	1	5	518.1051	35	1	4000	1790223.8204	163.8735	66.9152	70.9363	71.9541	72.9543	0
203	14	16	1	5	356.5299	35	1	4000	1790223.8204	163.8735	72.9718	76.9930	78.0108	79.0109	0
203	14	17	1	5	315.0482	35	1	4000	1790223.8204	163.8735	79.0452	83.0664	84.0841	85.0843	0
203	14	18	1	5	450.8218	35	1	4000	1790223.8204	163.8735	85.1019	89.1230	90.1408	91.1409	0
203	14	19	1	5	394.3761	32	1	4000	1790223.8204	163.8735	91.1753	95.1964	96.2142	97.2143	0
203	14	20	1	5	337.5106	35	1	4000	1790223.8204	163.8735	97.2320	101.2531	102.2709	103.2710	0
203	14	21	1	5	520.4009	32	1	4000	1790223.8204	163.8735	103.2887	107.3098	108.3276	109.3277	0
203	14	22	1	5	407.4276	32	1	4000	1790223.8204	163.8735	109.3620	113.3831	114.4010	115.4011	0
203	14	23	1	5	389.9261	32	1	4000	1790223.8204	163.8735	115.4187	119.4398	120.4576	121.4578	0
203	14	24	1	5	381.4472	35	1	4000	1790223.8204	163.8735	121.4921	125.5132	126.5310	127.5311	0
203	14	25	1	5	523.6398	32	1	4000	1790223.8204	163.8735	127.5488	131.5699	132.5877	133.5878	0
203	14	26	1	5	355.9167	32	1	4000	1790223.8204	163.8735	133.6054	137.6265	138.6443	139.6445	0
203	14	27	1	5	394.7964	32	1	4000	1790223.8204	163.8735	139.6788	143.6999	144.7177	145.7178	0
203	14	28	1	5	353.1387	35	1	4000	1790223.8204	163.8735	145.7355	149.7566	150.7744	151.7746	0
203	14	29	1	5	480.8745	35	1	4000	1790223.8204	163.8735	151.7922	155.8133	156.8311	157.8312	0
203	14	30	1	5	360.4363	32	1	4000	1790223.8204	163.8735	157.8489	161.8700	162.8877	163.8879	0
203	15	1	1	5	341.6846	35	1	1000	1790223.8204	163.8915	 0.0299	 1.0476	 2.0655	 3.0656	0
203	15	2	1	5	647.5119	32	1	1000	1790223.8204	163.8915	 3.0999	 4.1344	 5.1522	 6.1523	0
203	15	3	1	5	345.5307	35	1	1000	1790223.8204	163.8915	 6.1700	 7.1878	 8.2055	 9.2057	0
203	15	4	1	5	396.4001	32	1	1000	1790223.8204	163.8915	 9.2233	10.2412	11.2589	12.2591	0
203	15	5	1	5	383.2048	32	1	1000	1790223.8204	163.8915	12.2767	13.2945	14.3123	15.3125	0
203	15	6	1	5	337.0978	35	1	1000	1790223.8204	163.8915	15.3468	16.3646	17.3824	18.3825	0
203	15	7	1	5	551.6576	35	1	4000	1790223.8204	163.8915	18.4168	22.4379	23.4558	24.4559	0
203	15	8	1	5	415.4015	32	1	4000	1790223.8204	163.8915	24.4735	28.4946	29.5124	30.5126	0
203	15	9	1	5	445.3885	35	1	4000	1790223.8204	163.8915	30.5469	34.5680	35.5858	36.5860	0
203	15	10	1	5	364.5002	35	1	4000	1790223.8204	163.8915	36.6036	40.6247	41.6425	42.6426	0
203	15	11	1	5	388.0163	32	1	4000	1790223.8204	163.8915	42.6602	46.6814	47.6991	48.6993	0
203	15	12	1	5	859.1472	35	1	4000	1790223.8204	163.8915	48.7336	52.7547	53.7726	54.7727	0
203	15	13	1	5	386.5474	35	1	4000	1790223.8204	163.8915	54.7903	58.8114	59.8292	60.8293	0
203	15	14	1	5	536.5251	32	1	4000	1790223.8204	163.8915	60.8635	64.8848	65.9026	66.9027	0
203	15	15	1	5	440.1039	32	1	4000	1790223.8204	163.8915	66.9204	70.9414	71.9593	72.9595	0
203	15	16	1	5	375.6705	32	1	4000	1790223.8204	163.8915	72.9770	76.9981	78.0159	79.0161	0
203	15	17	1	5	389.5861	35	1	4000	1790223.8204	163.8915	79.0504	83.0715	84.0893	85.0894	0
203	15	18	1	5	373.8984	32	1	4000	1790223.8204	163.8915	85.1071	89.1282	90.1460	91.1461	0
203	15	19	1	5	371.2269	35	1	4000	1790223.8204	163.8915	91.1805	95.2016	96.2193	97.2195	0
203	15	20	1	5	395.3520	35	1	4000	1790223.8204	163.8915	97.2371	101.2582	102.2760	103.2762	0
203	15	21	1	5	323.0365	35	1	4000	1790223.8204	163.8915	103.2938	107.3149	108.3327	109.3328	0
203	15	22	1	5	384.6801	35	1	4000	1790223.8204	163.8915	109.3672	113.3883	114.4061	115.4062	0
203	15	23	1	5	399.9768	32	1	4000	1790223.8204	163.8915	115.4239	119.4448	120.4628	121.4629	0
203	15	24	1	5	463.7877	32	1	4000	1790223.8204	163.8915	121.4972	125.5183	126.5361	127.5362	0
203	15	25	1	5	390.1783	35	1	4000	1790223.8204	163.8915	127.5539	131.5751	132.5928	133.5930	0
203	15	26	1	5	389.8073	35	1	4000	1790223.8204	163.8915	133.6106	137.6316	138.6495	139.6497	0
203	15	27	1	5	396.5280	35	1	4000	1790223.8204	163.8915	139.6840	143.7051	144.7230	145.7231	0
203	15	28	1	5	491.6193	35	1	4000	1790223.8204	163.8915	145.7407	149.7618	150.7795	151.7797	0
203	15	29	1	5	371.0793	32	1	4000	1790223.8204	163.8915	151.8140	155.8183	156.8362	157.8364	0
203	15	30	1	5	354.3927	32	1	4000	1790223.8204	163.8915	157.8540	161.8751	162.8929	163.8930	0
SUBID	BLOCK	TRIAL	REP	RUNID	RT	RESP	ACC	RSIJIT	EV_START	EV_BLOCK	EV_TRIAL	EV_RETRIEVAL	EV_PROBE	EV_RESP	EV_BLEND
203	16	1	1	6	413.5607	35	1	1000	1790834.5967	 0.0042	 0.0221	 1.0391	 2.0570	 3.0596	0
203	16	2	1	6	337.0442	35	1	1000	1790834.5967	 0.0042	 3.0910	 4.1088	 5.1266	 6.1267	0
203	16	3	1	6	379.7030	32	1	1000	1790834.5967	 0.0042	 6.1442	 7.1621	 8.1799	 9.1802	0
203	16	4	1	6	332.5519	35	1	1000	1790834.5967	 0.0042	 9.2144	10.2489	11.2834	12.2835	0
203	16	5	1	6	534.6165	32	1	1000	1790834.5967	 0.0042	12.3178	13.3355	14.3534	15.3536	0
203	16	6	1	6	392.3935	32	1	1000	1790834.5967	 0.0042	15.3712	16.3889	17.4068	18.4069	0
203	16	7	1	6	695.9861	32	1	4000	1790834.5967	 0.0042	18.4246	22.4457	23.4635	24.4636	0
203	16	8	1	6	430.3302	35	1	4000	1790834.5967	 0.0042	24.4978	28.5191	29.5368	30.5370	0
203	16	9	1	6	413.7218	32	1	4000	1790834.5967	 0.0042	30.5546	34.5757	35.5935	36.5936	0
203	16	10	1	6	389.1924	35	1	4000	1790834.5967	 0.0042	36.6113	40.6324	41.6669	42.6671	0
203	16	11	1	6	379.4448	32	1	4000	1790834.5967	 0.0042	42.7014	46.7224	47.7403	48.7405	0
203	16	12	1	6	361.8734	35	1	4000	1790834.5967	 0.0042	48.7580	52.7792	53.7969	54.7971	0
203	16	13	1	6	448.4010	35	1	4000	1790834.5967	 0.0042	54.8314	58.8525	59.8702	60.8704	0
203	16	14	1	6	423.6779	32	1	4000	1790834.5967	 0.0042	60.8879	64.9092	65.9270	66.9271	0
203	16	15	1	6	423.0437	32	1	4000	1790834.5967	 0.0042	66.9448	70.9658	72.0004	73.0005	0
203	16	16	1	6	557.6333	32	1	4000	1790834.5967	 0.0042	73.0348	77.0559	78.0737	79.0738	0
203	16	17	1	6	397.7882	35	1	4000	1790834.5967	 0.0042	79.0915	83.1126	84.1304	85.1306	0
203	16	18	1	6	419.1050	32	1	4000	1790834.5967	 0.0042	85.1649	89.1859	90.2037	91.2039	0
203	16	19	1	6	427.3576	35	1	4000	1790834.5967	 0.0042	91.2215	95.2426	96.2605	97.2606	0
203	16	20	1	6	433.2303	32	1	4000	1790834.5967	 0.0042	97.2782	101.2993	102.3338	103.3340	0
203	16	21	1	6	433.0198	35	1	4000	1790834.5967	 0.0042	103.3683	107.3894	108.4072	109.4073	0
203	16	22	1	6	408.0841	32	1	4000	1790834.5967	 0.0042	109.4250	113.4461	114.4639	115.4640	0
203	16	23	1	6	398.0160	35	1	4000	1790834.5967	 0.0042	115.4984	119.5193	120.5372	121.5374	0
203	16	24	1	6	348.8578	35	1	4000	1790834.5967	 0.0042	121.5550	125.5761	126.5939	127.5940	0
203	16	25	1	6	412.1039	35	1	4000	1790834.5967	 0.0042	127.6117	131.6328	132.6673	133.6674	0
203	16	26	1	6	379.0561	35	1	4000	1790834.5967	 0.0042	133.6850	137.7061	138.7240	139.7241	0
203	16	27	1	6	451.3370	32	1	4000	1790834.5967	 0.0042	139.7418	143.7629	144.7806	145.7808	0
203	16	28	1	6	472.8447	32	0	4000	1790834.5967	 0.0042	145.8151	149.8362	150.8540	151.8541	0
203	16	29	1	6	401.9570	32	1	4000	1790834.5967	 0.0042	152.6393	156.6604	157.6782	158.6784	0
203	16	30	1	6	448.2859	32	1	4000	1790834.5967	 0.0042	158.6960	162.7171	163.7515	164.7517	0
203	17	1	1	6	413.0713	35	1	1000	1790834.5967	164.7558	 0.0138	 1.0315	 2.0493	 3.0495	0
203	17	2	1	6	445.5470	32	1	1000	1790834.5967	164.7558	 3.0838	 4.1183	 5.1527	 6.1529	0
203	17	3	1	6	392.2360	32	1	1000	1790834.5967	164.7558	 6.1873	 7.2050	 8.2227	 9.2228	0
203	17	4	1	6	403.0071	35	1	1000	1790834.5967	164.7558	 9.2407	10.2584	11.2762	12.2764	0
203	17	5	1	6	429.0727	32	1	1000	1790834.5967	164.7558	12.2940	13.3116	14.3296	15.3297	0
203	17	6	1	6	431.6379	32	1	1000	1790834.5967	164.7558	15.3473	16.3651	17.3830	18.3831	0
203	17	7	1	6	366.1945	35	1	4000	1790834.5967	164.7558	18.4174	22.4385	23.4563	24.4564	0
203	17	8	1	6	421.7944	35	1	4000	1790834.5967	164.7558	24.4741	28.4952	29.5130	30.5131	0
203	17	9	1	6	356.0939	35	1	4000	1790834.5967	164.7558	30.5308	34.5519	35.5864	36.5865	0
203	17	10	1	6	411.6547	32	1	4000	1790834.5967	164.7558	36.6041	40.6252	41.6430	42.6431	0
203	17	11	1	6	386.3602	35	1	4000	1790834.5967	164.7558	42.6608	46.6819	47.6997	48.6998	0
203	17	12	1	6	385.2066	32	1	4000	1790834.5967	164.7558	48.7342	52.7553	53.7731	54.7732	0
203	17	13	1	6	448.3804	35	1	4000	1790834.5967	164.7558	54.7908	58.8120	59.8298	60.8299	0
203	17	14	1	6	399.2363	35	1	4000	1790834.5967	164.7558	60.8476	64.8687	65.9031	66.9033	0
203	17	15	1	6	358.6361	35	1	4000	1790834.5967	164.7558	66.9209	70.9420	71.9598	72.9600	0
203	17	16	1	6	341.2995	35	1	4000	1790834.5967	164.7558	72.9776	76.9987	78.0165	79.0166	0
203	17	17	1	6	355.7328	35	1	4000	1790834.5967	164.7558	79.0510	83.0721	84.0899	85.0901	0
203	17	18	1	6	404.1310	32	1	4000	1790834.5967	164.7558	85.1077	89.1288	90.1466	91.1467	0
203	17	19	1	6	330.5287	35	1	4000	1790834.5967	164.7558	91.1643	95.1854	96.2199	97.2201	0
203	17	20	1	6	298.3415	32	1	4000	1790834.5967	164.7558	97.2377	101.2588	102.2766	103.2767	0
203	17	21	1	6	313.5251	35	1	4000	1790834.5967	164.7558	103.2943	107.3155	108.3333	109.3335	0
203	17	22	1	6	375.4812	32	1	4000	1790834.5967	164.7558	109.3676	113.3889	114.4066	115.4068	0
203	17	23	1	6	358.7630	35	1	4000	1790834.5967	164.7558	115.4245	119.4455	120.4633	121.4635	0
203	17	24	1	6	382.5640	35	1	4000	1790834.5967	164.7558	121.4811	125.5022	126.5366	127.5368	0
203	17	25	1	6	364.7284	35	1	4000	1790834.5967	164.7558	127.5545	131.5755	132.5933	133.5935	0
203	17	26	1	6	516.9023	32	1	4000	1790834.5967	164.7558	133.6111	137.6323	138.6501	139.6502	0
203	17	27	1	6	354.8286	35	1	4000	1790834.5967	164.7558	139.6845	143.7056	144.7234	145.7236	0
203	17	28	1	6	378.2440	35	1	4000	1790834.5967	164.7558	145.7412	149.7623	150.7801	151.7802	0
203	17	29	1	6	369.1915	32	1	4000	1790834.5967	164.7558	151.7979	155.8190	156.8535	157.8537	0
203	17	30	1	6	335.4139	35	1	4000	1790834.5967	164.7558	157.8713	161.8924	162.9102	163.9103	0
203	18	1	1	6	417.0286	32	1	1000	1790834.5967	163.9139	 0.0272	 1.0617	 2.0794	 3.0796	0
203	18	2	1	6	426.9899	35	1	1000	1790834.5967	163.9139	 3.0972	 4.1151	 5.1329	 6.1330	0
203	18	3	1	6	358.2763	32	0	1000	1790834.5967	163.9139	 6.1507	 7.1684	 8.1862	 9.1864	0
203	18	4	1	6	695.6631	32	1	1000	1790834.5967	163.9139	 9.9882	11.0060	12.0238	13.0240	0
203	18	5	1	6	593.0552	32	1	1000	1790834.5967	163.9139	13.0582	14.0761	15.1104	16.1106	0
203	18	6	1	6	395.4210	35	1	1000	1790834.5967	163.9139	16.1450	17.1628	18.1806	19.1807	0
203	18	7	1	6	434.6215	32	1	4000	1790834.5967	163.9139	19.1984	23.2195	24.2373	25.2374	0
203	18	8	1	6	354.1255	35	1	4000	1790834.5967	163.9139	25.2551	29.2760	30.2940	31.2941	0
203	18	9	1	6	368.2982	35	1	4000	1790834.5967	163.9139	31.3284	35.3495	36.3674	37.3675	0
203	18	10	1	6	399.9171	35	1	4000	1790834.5967	163.9139	37.3851	41.4062	42.4240	43.4242	0
203	18	11	1	6	415.2383	32	1	4000	1790834.5967	163.9139	43.4585	47.4794	48.4974	49.4976	0
203	18	12	1	6	453.3317	32	1	4000	1790834.5967	163.9139	49.5151	53.5363	54.5541	55.5542	0
203	18	13	1	6	420.3277	35	1	4000	1790834.5967	163.9139	55.5719	59.5929	60.6273	61.6274	0
203	18	14	1	6	322.3616	35	1	4000	1790834.5967	163.9139	61.6619	65.6830	66.7008	67.7009	0
203	18	15	1	6	403.0726	32	1	4000	1790834.5967	163.9139	67.7186	71.7397	72.7575	73.7576	0
203	18	16	1	6	408.8493	35	1	4000	1790834.5967	163.9139	73.7919	77.8130	78.8308	79.8310	0
203	18	17	1	6	424.9888	35	1	4000	1790834.5967	163.9139	79.8486	83.8697	84.8875	85.8876	0
203	18	18	1	6	366.8947	35	1	4000	1790834.5967	163.9139	85.9053	89.9264	90.9442	91.9443	0
203	18	19	1	6	438.1906	32	1	4000	1790834.5967	163.9139	91.9787	95.9998	97.0175	98.0176	0
203	18	20	1	6	445.9647	32	1	4000	1790834.5967	163.9139	98.0354	102.0565	103.0743	104.0744	0
203	18	21	1	6	388.5592	32	1	4000	1790834.5967	163.9139	104.1087	108.1298	109.1476	110.1478	0
203	18	22	1	6	451.9032	32	1	4000	1790834.5967	163.9139	110.1653	114.1865	115.2043	116.2044	0
203	18	23	1	6	395.1186	32	1	4000	1790834.5967	163.9139	116.2221	120.2432	121.2776	122.2777	0
203	18	24	1	6	376.1854	35	1	4000	1790834.5967	163.9139	122.3122	126.3332	127.3510	128.3512	0
203	18	25	1	6	600.3410	32	0	4000	1790834.5967	163.9139	128.3688	132.3899	133.4077	134.4079	0
203	18	26	1	6	687.4657	32	1	4000	1790834.5967	163.9139	135.2097	139.2308	140.2485	141.2487	0
203	18	27	1	6	478.9112	35	1	4000	1790834.5967	163.9139	141.2664	145.2875	146.3053	147.3054	0
203	18	28	1	6	766.0818	32	1	4000	1790834.5967	163.9139	147.3230	151.3441	152.3786	153.3787	0
203	18	29	1	6	332.7808	35	1	4000	1790834.5967	163.9139	153.3965	157.4175	158.4353	159.4355	0
203	18	30	1	6	348.5602	35	1	4000	1790834.5967	163.9139	159.4531	163.4741	164.4920	165.4922	0
SUBID	BLOCK	TRIAL	REP	RUNID	RT	RESP	ACC	RSIJIT	EV_START	EV_BLOCK	EV_TRIAL	EV_RETRIEVAL	EV_PROBE	EV_RESP	EV_BLEND
203	19	1	1	7	500.5219	32	1	1000	1791499.1486	 0.0039	 0.0299	 1.0470	 2.0647	 3.0674	0
203	19	2	1	7	424.2235	35	1	1000	1791499.1486	 0.0039	 3.0820	 4.0999	 5.1177	 6.1179	0
203	19	3	1	7	500.1657	32	1	1000	1791499.1486	 0.0039	 6.1355	 7.1533	 8.1711	 9.1712	0
203	19	4	1	7	397.8498	32	1	1000	1791499.1486	 0.0039	 9.1889	10.2067	11.2245	12.2246	0
203	19	5	1	7	407.9377	35	1	1000	1791499.1486	 0.0039	12.2589	13.2767	14.3112	15.3114	0
203	19	6	1	7	418.1556	32	1	1000	1791499.1486	 0.0039	15.3457	16.3635	17.3812	18.3814	0
203	19	7	1	7	585.2797	35	1	4000	1791499.1486	 0.0039	18.3990	22.4201	23.4379	24.4381	0
203	19	8	1	7	400.2039	32	1	4000	1791499.1486	 0.0039	24.4557	28.4768	29.4946	30.4948	0
203	19	9	1	7	382.2246	32	1	4000	1791499.1486	 0.0039	30.5291	34.5500	35.5680	36.5681	0
203	19	10	1	7	485.2092	32	1	4000	1791499.1486	 0.0039	36.5857	40.6069	41.6247	42.6248	0
203	19	11	1	7	412.4777	35	1	4000	1791499.1486	 0.0039	42.6591	46.6802	47.6980	48.6982	0
203	19	12	1	7	572.1778	32	1	4000	1791499.1486	 0.0039	48.7158	52.7369	53.7547	54.7549	0
203	19	13	1	7	395.3540	35	1	4000	1791499.1486	 0.0039	54.7725	58.7936	59.8114	60.8116	0
203	19	14	1	7	385.2620	35	1	4000	1791499.1486	 0.0039	60.8459	64.8670	65.8848	66.8849	0
203	19	15	1	7	305.2475	35	1	4000	1791499.1486	 0.0039	66.9025	70.9236	71.9414	72.9416	0
203	19	16	1	7	495.7925	32	1	4000	1791499.1486	 0.0039	72.9759	76.9970	78.0147	79.0149	0
203	19	17	1	7	391.8033	32	1	4000	1791499.1486	 0.0039	79.0326	83.0537	84.0714	85.0716	0
203	19	18	1	7	373.7621	32	1	4000	1791499.1486	 0.0039	85.0893	89.1104	90.1449	91.1450	0
203	19	19	1	7	380.4243	35	1	4000	1791499.1486	 0.0039	91.1793	95.2004	96.2182	97.2184	0
203	19	20	1	7	547.1289	32	1	4000	1791499.1486	 0.0039	97.2360	101.2571	102.2749	103.2750	0
203	19	21	1	7	450.0328	32	1	4000	1791499.1486	 0.0039	103.3094	107.3305	108.3483	109.3484	0
203	19	22	1	7	394.2674	32	1	4000	1791499.1486	 0.0039	109.3661	113.3872	114.4050	115.4051	0
203	19	23	1	7	392.8919	32	1	4000	1791499.1486	 0.0039	115.4227	119.4438	120.4783	121.4785	0
203	19	24	1	7	438.4421	32	1	4000	1791499.1486	 0.0039	121.5128	125.5339	126.5517	127.5518	0
203	19	25	1	7	430.1945	32	1	4000	1791499.1486	 0.0039	127.5695	131.5905	132.6084	133.6086	0
203	19	26	1	7	405.4632	32	1	4000	1791499.1486	 0.0039	133.6429	137.6639	138.6817	139.6819	0
203	19	27	1	7	452.0608	35	1	4000	1791499.1486	 0.0039	139.6995	143.7206	144.7384	145.7386	0
203	19	28	1	7	499.3535	32	1	4000	1791499.1486	 0.0039	145.7562	149.7773	150.8118	151.8119	0
203	19	29	1	7	458.7997	35	1	4000	1791499.1486	 0.0039	151.8295	155.8507	156.8685	157.8686	0
203	19	30	1	7	354.1600	35	1	4000	1791499.1486	 0.0039	157.8862	161.9074	162.9251	163.9253	0
203	20	1	1	7	345.4611	35	1	1000	1791499.1486	163.9291	 0.0092	 1.0271	 2.0449	 3.0450	0
203	20	2	1	7	588.6778	32	1	1000	1791499.1486	163.9291	 3.0625	 4.0804	 5.0983	 6.0984	0
203	20	3	1	7	415.4261	32	1	1000	1791499.1486	163.9291	 6.1161	 7.1338	 8.1516	 9.1517	0
203	20	4	1	7	362.3414	35	1	1000	1791499.1486	163.9291	 9.1694	10.1872	11.2050	12.2052	0
203	20	5	1	7	371.7428	35	1	1000	1791499.1486	163.9291	12.2394	13.2740	14.2918	15.2919	0
203	20	6	1	7	413.7377	32	1	1000	1791499.1486	163.9291	15.3095	16.3273	17.3451	18.3452	0
203	20	7	1	7	413.8455	32	1	4000	1791499.1486	163.9291	18.3629	22.3839	23.4017	24.4019	0
203	20	8	1	7	396.9001	32	1	4000	1791499.1486	163.9291	24.4195	28.4405	29.4585	30.4586	0
203	20	9	1	7	403.9925	32	0	4000	1791499.1486	163.9291	30.4762	34.4974	35.5151	36.5153	0
203	20	10	1	7	426.7184	35	1	4000	1791499.1486	163.9291	37.3171	41.3382	42.3727	43.3729	0
203	20	11	1	7	953.3876	32	1	4000	1791499.1486	163.9291	43.4072	47.4283	48.4461	49.4462	0
203	20	12	1	7	504.9845	32	1	4000	1791499.1486	163.9291	49.4639	53.4850	54.5028	55.5029	0
203	20	13	1	7	375.3497	35	1	4000	1791499.1486	163.9291	55.5372	59.5415	60.5594	61.5596	0
203	20	14	1	7	382.5406	35	1	4000	1791499.1486	163.9291	61.5772	65.5984	66.6161	67.6162	0
203	20	15	1	7	357.0299	35	1	4000	1791499.1486	163.9291	67.6339	71.6550	72.6895	73.6896	0
203	20	16	1	7	347.4052	35	1	4000	1791499.1486	163.9291	73.7241	77.7451	78.7629	79.7630	0
203	20	17	1	7	378.8859	32	1	4000	1791499.1486	163.9291	79.7807	83.8017	84.8195	85.8197	0
203	20	18	1	7	433.5444	32	1	4000	1791499.1486	163.9291	85.8540	89.8751	90.8929	91.8930	0
203	20	19	1	7	440.8953	32	1	4000	1791499.1486	163.9291	91.9107	95.9318	96.9496	97.9498	0
203	20	20	1	7	384.6084	35	1	4000	1791499.1486	163.9291	97.9674	101.9884	103.0063	104.0064	0
203	20	21	1	7	343.3032	35	1	4000	1791499.1486	163.9291	104.0408	108.0618	109.0796	110.0798	0
203	20	22	1	7	374.3449	32	1	4000	1791499.1486	163.9291	110.0974	114.1185	115.1363	116.1365	0
203	20	23	1	7	405.1807	32	1	4000	1791499.1486	163.9291	116.1708	120.1752	121.1930	122.1931	0
203	20	24	1	7	341.9281	35	1	4000	1791499.1486	163.9291	122.2108	126.2318	127.2497	128.2498	0
203	20	25	1	7	355.7405	35	1	4000	1791499.1486	163.9291	128.2674	132.2886	133.3231	134.3232	0
203	20	26	1	7	410.3230	32	1	4000	1791499.1486	163.9291	134.3575	138.3786	139.3964	140.3965	0
203	20	27	1	7	378.5251	32	1	4000	1791499.1486	163.9291	140.4142	144.4353	145.4531	146.4533	0
203	20	28	1	7	409.2652	32	1	4000	1791499.1486	163.9291	146.4876	150.4920	151.5098	152.5099	0
203	20	29	1	7	320.9125	32	1	4000	1791499.1486	163.9291	152.5276	156.5487	157.5665	158.5666	0
203	20	30	1	7	335.5145	35	1	4000	1791499.1486	163.9291	158.5841	162.6054	163.6232	164.6233	0
203	21	1	1	7	459.2361	32	1	1000	1791499.1486	164.6267	 0.0086	 1.0263	 2.0442	 3.0443	0
203	21	2	1	7	326.0767	35	1	1000	1791499.1486	164.6267	 3.0620	 4.0798	 5.0976	 6.0977	0
203	21	3	1	7	432.7522	35	1	1000	1791499.1486	164.6267	 6.1153	 7.1332	 8.1509	 9.1511	0
203	21	4	1	7	633.7615	32	1	1000	1791499.1486	164.6267	 9.1854	10.2199	11.2544	12.2545	0
203	21	5	1	7	412.4207	32	1	1000	1791499.1486	164.6267	12.2721	13.2899	14.3077	15.3079	0
203	21	6	1	7	374.6680	32	1	1000	1791499.1486	164.6267	15.3255	16.3433	17.3611	18.3613	0
203	21	7	1	7	461.1428	35	1	4000	1791499.1486	164.6267	18.3789	22.4000	23.4178	24.4179	0
203	21	8	1	7	492.3715	32	1	4000	1791499.1486	164.6267	24.4523	28.4734	29.4912	30.4913	0
203	21	9	1	7	499.7680	32	1	4000	1791499.1486	164.6267	30.5088	34.5301	35.5478	36.5480	0
203	21	10	1	7	369.7887	35	1	4000	1791499.1486	164.6267	36.5656	40.5867	41.6212	42.6214	0
203	21	11	1	7	417.5319	35	1	4000	1791499.1486	164.6267	42.6390	46.6601	47.6779	48.6780	0
203	21	12	1	7	536.8622	32	1	4000	1791499.1486	164.6267	48.6957	52.7168	53.7346	54.7347	0
203	21	13	1	7	367.2732	35	1	4000	1791499.1486	164.6267	54.7690	58.7901	59.8079	60.8081	0
203	21	14	1	7	367.5258	35	1	4000	1791499.1486	164.6267	60.8257	64.8468	65.8646	66.8648	0
203	21	15	1	7	573.8262	32	1	4000	1791499.1486	164.6267	66.8823	70.9035	71.9380	72.9381	0
203	21	16	1	7	437.4622	32	1	4000	1791499.1486	164.6267	72.9558	76.9767	77.9947	78.9948	0
203	21	17	1	7	357.1184	35	1	4000	1791499.1486	164.6267	79.0125	83.0336	84.0514	85.0515	0
203	21	18	1	7	395.1948	32	1	4000	1791499.1486	164.6267	85.0858	89.1069	90.1247	91.1249	0
203	21	19	1	7	441.7742	32	1	4000	1791499.1486	164.6267	91.1425	95.1636	96.1814	97.1816	0
203	21	20	1	7	377.3182	32	1	4000	1791499.1486	164.6267	97.1993	101.2203	102.2548	103.2549	0
203	21	21	1	7	360.8508	32	1	4000	1791499.1486	164.6267	103.2726	107.2937	108.3114	109.3115	0
203	21	22	1	7	358.8275	35	1	4000	1791499.1486	164.6267	109.3292	113.3503	114.3681	115.3683	0
203	21	23	1	7	413.6882	32	1	4000	1791499.1486	164.6267	115.4025	119.4237	120.4415	121.4417	0
203	21	24	1	7	397.4933	35	1	4000	1791499.1486	164.6267	121.4593	125.4804	126.4982	127.4983	0
203	21	25	1	7	516.5352	35	1	4000	1791499.1486	164.6267	127.5160	131.5370	132.5716	133.5717	0
203	21	26	1	7	339.3299	35	1	4000	1791499.1486	164.6267	133.5894	137.6104	138.6282	139.6284	0
203	21	27	1	7	418.4235	35	1	4000	1791499.1486	164.6267	139.6460	143.6671	144.6849	145.6851	0
203	21	28	1	7	497.8746	32	1	4000	1791499.1486	164.6267	145.7194	149.7405	150.7583	151.7584	0
203	21	29	1	7	408.8957	35	1	4000	1791499.1486	164.6267	151.7761	155.7971	156.8150	157.8151	0
203	21	30	1	7	416.0924	32	1	4000	1791499.1486	164.6267	157.8327	161.8539	162.8883	163.8885	0
SUBID	BLOCK	TRIAL	REP	RUNID	RT	RESP	ACC	RSIJIT	EV_START	EV_BLOCK	EV_TRIAL	EV_RETRIEVAL	EV_PROBE	EV_RESP	EV_BLEND
203	22	1	1	8	679.9637	32	1	1000	1792134.3814	 0.0039	 0.0113	 1.0285	 2.0464	 3.0490	0
203	22	2	1	8	466.3061	35	1	1000	1792134.3814	 0.0039	 3.0805	 4.0983	 5.1161	 6.1162	0
203	22	3	1	8	438.1412	32	1	1000	1792134.3814	 0.0039	 6.1339	 7.1517	 8.1694	 9.1696	0
203	22	4	1	8	405.5971	32	1	1000	1792134.3814	 0.0039	 9.2039	10.2384	11.2729	12.2730	0
203	22	5	1	8	383.5587	35	1	1000	1792134.3814	 0.0039	12.3072	13.3251	14.3429	15.3430	0
203	22	6	1	8	370.3291	35	1	1000	1792134.3814	 0.0039	15.3607	16.3785	17.3963	18.3964	0
203	22	7	1	8	426.6480	32	1	4000	1792134.3814	 0.0039	18.4141	22.4352	23.4530	24.4531	0
203	22	8	1	8	408.7603	32	1	4000	1792134.3814	 0.0039	24.4874	28.5085	29.5263	30.5265	0
203	22	9	1	8	472.6016	32	1	4000	1792134.3814	 0.0039	30.5441	34.5652	35.5830	36.5832	0
203	22	10	1	8	398.5478	35	1	4000	1792134.3814	 0.0039	36.6008	40.6219	41.6564	42.6565	0
203	22	11	1	8	453.1586	32	1	4000	1792134.3814	 0.0039	42.6909	46.7120	47.7298	48.7299	0
203	22	12	1	8	453.3538	32	1	4000	1792134.3814	 0.0039	48.7475	52.7686	53.7864	54.7866	0
203	22	13	1	8	531.1631	32	1	4000	1792134.3814	 0.0039	54.8209	58.8420	59.8598	60.8600	0
203	22	14	1	8	395.0664	32	1	4000	1792134.3814	 0.0039	60.8776	64.8986	65.9165	66.9166	0
203	22	15	1	8	402.1455	32	1	4000	1792134.3814	 0.0039	66.9343	70.9553	71.9899	72.9900	0
203	22	16	1	8	392.8389	32	1	4000	1792134.3814	 0.0039	73.0076	77.0287	78.0465	79.0467	0
203	22	17	1	8	376.3328	35	1	4000	1792134.3814	 0.0039	79.0643	83.0854	84.1032	85.1034	0
203	22	18	1	8	382.4410	35	1	4000	1792134.3814	 0.0039	85.1376	89.1586	90.1766	91.1767	0
203	22	19	1	8	357.8149	35	1	4000	1792134.3814	 0.0039	91.1944	95.2155	96.2333	97.2334	0
203	22	20	1	8	397.1717	35	1	4000	1792134.3814	 0.0039	97.2510	101.2722	102.3066	103.3067	0
203	22	21	1	8	347.1180	35	1	4000	1792134.3814	 0.0039	103.3245	107.3456	108.3633	109.3635	0
203	22	22	1	8	315.7573	35	1	4000	1792134.3814	 0.0039	109.3811	113.4022	114.4200	115.4201	0
203	22	23	1	8	401.7428	32	1	4000	1792134.3814	 0.0039	115.4544	119.4756	120.4934	121.4935	0
203	22	24	1	8	385.3881	32	1	4000	1792134.3814	 0.0039	121.5110	125.5323	126.5500	127.5502	0
203	22	25	1	8	367.4465	35	1	4000	1792134.3814	 0.0039	127.5678	131.5890	132.6234	133.6236	0
203	22	26	1	8	335.0796	32	1	4000	1792134.3814	 0.0039	133.6412	137.6623	138.6801	139.6802	0
203	22	27	1	8	381.6422	32	1	4000	1792134.3814	 0.0039	139.6979	143.7190	144.7368	145.7369	0
203	22	28	1	8	405.5628	32	1	4000	1792134.3814	 0.0039	145.7712	149.7924	150.8101	151.8103	0
203	22	29	1	8	403.8799	32	1	4000	1792134.3814	 0.0039	151.8279	155.8491	156.8669	157.8670	0
203	22	30	1	8	362.7785	32	1	4000	1792134.3814	 0.0039	157.8846	161.9057	162.9402	163.9403	0
203	23	1	1	8	414.1147	35	1	1000	1792134.3814	163.9441	 0.0216	 1.0393	 2.0572	 3.0573	0
203	23	2	1	8	328.1305	35	1	1000	1792134.3814	163.9441	 3.0917	 4.1094	 5.1272	 6.1274	0
203	23	3	1	8	304.6184	35	1	1000	1792134.3814	163.9441	 6.1617	 7.1962	 8.2140	 9.2141	0
203	23	4	1	8	388.0863	35	1	1000	1792134.3814	163.9441	 9.2317	10.2495	11.2673	12.2675	0
203	23	5	1	8	359.0100	32	1	1000	1792134.3814	163.9441	12.2851	13.3029	14.3207	15.3208	0
203	23	6	1	8	361.2663	32	1	1000	1792134.3814	163.9441	15.3385	16.3563	17.3741	18.3742	0
203	23	7	1	8	432.1463	32	1	4000	1792134.3814	163.9441	18.3917	22.4130	23.4308	24.4309	0
203	23	8	1	8	376.4009	32	1	4000	1792134.3814	163.9441	24.4486	28.4697	29.4874	30.4876	0
203	23	9	1	8	407.0400	35	1	4000	1792134.3814	163.9441	30.5052	34.5263	35.5441	36.5443	0
203	23	10	1	8	397.8485	32	1	4000	1792134.3814	163.9441	36.5786	40.5997	41.6175	42.6177	0
203	23	11	1	8	365.7370	32	1	4000	1792134.3814	163.9441	42.6353	46.6564	47.6742	48.6743	0
203	23	12	1	8	372.1736	32	1	4000	1792134.3814	163.9441	48.7087	52.7131	53.7309	54.7310	0
203	23	13	1	8	371.3452	32	1	4000	1792134.3814	163.9441	54.7486	58.7697	59.7875	60.7876	0
203	23	14	1	8	346.7799	32	1	4000	1792134.3814	163.9441	60.8053	64.8264	65.8443	66.8446	0
203	23	15	1	8	362.0768	32	1	4000	1792134.3814	163.9441	66.8787	70.8998	71.9176	72.9177	0
203	23	16	1	8	353.2648	32	1	4000	1792134.3814	163.9441	72.9354	76.9565	77.9743	78.9744	0
203	23	17	1	8	369.0328	32	1	4000	1792134.3814	163.9441	79.0088	83.0131	84.0310	85.0311	0
203	23	18	1	8	535.3565	32	1	4000	1792134.3814	163.9441	85.0488	89.0698	90.0877	91.0878	0
203	23	19	1	8	374.5048	35	1	4000	1792134.3814	163.9441	91.1053	95.1265	96.1443	97.1444	0
203	23	20	1	8	349.5997	35	1	4000	1792134.3814	163.9441	97.1788	101.1999	102.2177	103.2178	0
203	23	21	1	8	333.1011	35	1	4000	1792134.3814	163.9441	103.2355	107.2566	108.2744	109.2745	0
203	23	22	1	8	356.3625	35	1	4000	1792134.3814	163.9441	109.3089	113.3132	114.3311	115.3312	0
203	23	23	1	8	380.2356	32	1	4000	1792134.3814	163.9441	115.3488	119.3698	120.3877	121.3879	0
203	23	24	1	8	346.1634	32	1	4000	1792134.3814	163.9441	121.4055	125.4266	126.4611	127.4612	0
203	23	25	1	8	345.5831	35	1	4000	1792134.3814	163.9441	127.4955	131.5167	132.5345	133.5346	0
203	23	26	1	8	400.9731	32	1	4000	1792134.3814	163.9441	133.5522	137.5733	138.5910	139.5912	0
203	23	27	1	8	366.6977	32	1	4000	1792134.3814	163.9441	139.6257	143.6467	144.6644	145.6646	0
203	23	28	1	8	374.6213	32	1	4000	1792134.3814	163.9441	145.6823	149.7034	150.7212	151.7213	0
203	23	29	1	8	373.8010	32	1	4000	1792134.3814	163.9441	151.7389	155.7601	156.7779	157.7780	0
203	23	30	1	8	323.3746	35	1	4000	1792134.3814	163.9441	157.8124	161.8333	162.8513	163.8514	0
203	24	1	1	8	327.2072	35	1	1000	1792134.3814	163.8548	 0.0209	 1.0386	 2.0564	 3.0566	0
203	24	2	1	8	392.9484	32	1	1000	1792134.3814	163.8548	 3.0909	 4.1253	 5.1432	 6.1433	0
203	24	3	1	8	506.2878	32	1	1000	1792134.3814	163.8548	 6.1610	 7.1788	 8.1965	 9.1967	0
203	24	4	1	8	342.2306	35	1	1000	1792134.3814	163.8548	 9.2143	10.2321	11.2499	12.2500	0
203	24	5	1	8	337.0518	35	1	1000	1792134.3814	163.8548	12.2677	13.2855	14.3033	15.3034	0
203	24	6	1	8	395.6670	35	1	1000	1792134.3814	163.8548	15.3211	16.3389	17.3567	18.3568	0
203	24	7	1	8	377.7047	32	1	4000	1792134.3814	163.8548	18.3911	22.4122	23.4300	24.4301	0
203	24	8	1	8	424.5942	32	1	4000	1792134.3814	163.8548	24.4478	28.4689	29.4867	30.4868	0
203	24	9	1	8	543.8286	32	1	4000	1792134.3814	163.8548	30.5212	34.5422	35.5601	36.5602	0
203	24	10	1	8	559.0423	32	1	4000	1792134.3814	163.8548	36.5778	40.5990	41.6167	42.6168	0
203	24	11	1	8	326.3606	35	1	4000	1792134.3814	163.8548	42.6346	46.6557	47.6734	48.6736	0
203	24	12	1	8	332.9833	35	1	4000	1792134.3814	163.8548	48.7079	52.7290	53.7468	54.7469	0
203	24	13	1	8	307.4545	35	0	4000	1792134.3814	163.8548	54.7646	58.7857	59.8035	60.8036	0
203	24	14	1	8	394.6892	32	1	4000	1792134.3814	163.8548	61.6054	65.6266	66.6444	67.6445	0
203	24	15	1	8	378.8941	35	1	4000	1792134.3814	163.8548	67.6622	71.6833	72.7011	73.7012	0
203	24	16	1	8	369.1030	32	1	4000	1792134.3814	163.8548	73.7188	77.7399	78.7744	79.7746	0
203	24	17	1	8	383.9305	32	1	4000	1792134.3814	163.8548	79.8089	83.8300	84.8478	85.8479	0
203	24	18	1	8	391.4160	32	1	4000	1792134.3814	163.8548	85.8656	89.8867	90.9045	91.9046	0
203	24	19	1	8	349.3490	32	1	4000	1792134.3814	163.8548	91.9389	95.9600	96.9778	97.9780	0
203	24	20	1	8	380.9466	32	1	4000	1792134.3814	163.8548	97.9956	102.0167	103.0345	104.0347	0
203	24	21	1	8	355.8076	32	1	4000	1792134.3814	163.8548	104.0523	108.0734	109.0912	110.0913	0
203	24	22	1	8	379.0266	32	1	4000	1792134.3814	163.8548	110.1257	114.1468	115.1645	116.1647	0
203	24	23	1	8	378.3846	32	1	4000	1792134.3814	163.8548	116.1824	120.2034	121.2213	122.2214	0
203	24	24	1	8	408.3635	35	1	4000	1792134.3814	163.8548	122.2557	126.2768	127.2946	128.2948	0
203	24	25	1	8	320.5621	35	1	4000	1792134.3814	163.8548	128.3124	132.3335	133.3513	134.3515	0
203	24	26	1	8	374.7244	35	1	4000	1792134.3814	163.8548	134.3691	138.3902	139.4247	140.4248	0
203	24	27	1	8	389.6043	35	1	4000	1792134.3814	163.8548	140.4591	144.4802	145.4980	146.4982	0
203	24	28	1	8	292.6037	35	1	4000	1792134.3814	163.8548	146.5158	150.5369	151.5547	152.5548	0
203	24	29	1	8	339.4351	35	1	4000	1792134.3814	163.8548	152.5892	156.6103	157.6281	158.6282	0
203	24	30	1	8	346.8109	35	1	4000	1792134.3814	163.8548	158.6459	162.6668	163.6848	164.6850	0
