SUBID	BLOCK	TRIAL	REP	RUNID	RT	RESP	ACC	RSIJIT	EV_START	EV_BLOCK	EV_TRIAL	EV_RETRIEVAL	EV_PROBE	EV_RESP	EV_BLEND
204	1	1	1	1	443.5349	35	1	1000	2324946.0856	 0.0039	 0.0299	 1.0636	 2.0980	 3.1007	0
204	1	2	1	1	543.5578	32	1	1000	2324946.0856	 0.0039	 3.1321	 4.1499	 5.1676	 6.1678	0
204	1	3	1	1	547.0865	35	1	1000	2324946.0856	 0.0039	 6.1855	 7.2033	 8.2210	 9.2212	0
204	1	4	1	1	420.7499	35	1	1000	2324946.0856	 0.0039	 9.2388	10.2566	11.2744	12.2746	0
204	1	5	1	1	456.4196	35	1	1000	2324946.0856	 0.0039	12.2922	13.3100	14.3277	15.3279	0
204	1	6	1	1	440.5474	32	1	1000	2324946.0856	 0.0039	15.3623	16.3801	17.4145	18.4147	0
204	1	7	1	1	615.4074	32	1	4000	2324946.0856	 0.0039	18.4490	22.4701	23.4879	24.4881	0
204	1	8	1	1	999.3323	1	0	4000	2324946.0856	 0.0039	24.5057	28.5268	29.5446	30.5447	0
204	1	9	1	1	492.9847	35	1	4000	2324946.0856	 0.0039	31.3632	35.3842	36.4022	37.4023	0
204	1	10	1	1	485.6039	35	1	4000	2324946.0856	 0.0039	37.4199	41.4410	42.4588	43.4590	0
204	1	11	1	1	547.8035	35	1	4000	2324946.0856	 0.0039	43.4766	47.4976	48.5322	49.5323	0
204	1	12	1	1	579.1653	35	1	4000	2324946.0856	 0.0039	49.5500	53.5711	54.5889	55.5890	0
204	1	13	1	1	649.9891	35	1	4000	2324946.0856	 0.0039	55.6067	59.6277	60.6455	61.6457	0
204	1	14	1	1	480.9113	35	1	4000	2324946.0856	 0.0039	61.6800	65.7011	66.7189	67.7191	0
204	1	15	1	1	576.3887	32	1	4000	2324946.0856	 0.0039	67.7367	71.7578	72.7755	73.7756	0
204	1	16	1	1	447.3652	35	1	4000	2324946.0856	 0.0039	73.7934	77.8145	78.8490	79.8491	0
204	1	17	1	1	454.6596	32	1	4000	2324946.0856	 0.0039	79.8667	83.8879	84.9056	85.9057	0
204	1	18	1	1	556.5058	32	1	4000	2324946.0856	 0.0039	85.9235	89.9445	90.9623	91.9625	0
204	1	19	1	1	571.3730	32	1	4000	2324946.0856	 0.0039	91.9968	96.0179	97.0357	98.0358	0
204	1	20	1	1	483.5119	32	1	4000	2324946.0856	 0.0039	98.0535	102.0746	103.0924	104.0925	0
204	1	21	1	1	418.3886	32	1	4000	2324946.0856	 0.0039	104.1101	108.1313	109.1658	110.1659	0
204	1	22	1	1	521.9480	32	1	4000	2324946.0856	 0.0039	110.1835	114.2046	115.2225	116.2226	0
204	1	23	1	1	545.2866	32	1	4000	2324946.0856	 0.0039	116.2402	120.2613	121.2791	122.2793	0
204	1	24	1	1	574.6472	35	1	4000	2324946.0856	 0.0039	122.3136	126.3347	127.3525	128.3526	0
204	1	25	1	1	614.6981	35	1	4000	2324946.0856	 0.0039	128.3703	132.3914	133.4092	134.4093	0
204	1	26	1	1	541.4062	35	1	4000	2324946.0856	 0.0039	134.4270	138.4480	139.4825	140.4827	0
204	1	27	1	1	565.2471	35	1	4000	2324946.0856	 0.0039	140.5002	144.5215	145.5392	146.5394	0
204	1	28	1	1	811.4066	32	1	4000	2324946.0856	 0.0039	146.5570	150.5781	151.5959	152.5960	0
204	1	29	1	1	441.6896	32	1	4000	2324946.0856	 0.0039	152.6304	156.6515	157.6693	158.6694	0
204	1	30	1	1	624.9577	32	1	4000	2324946.0856	 0.0039	158.6870	162.7081	163.7259	164.7261	0
204	2	1	1	1	582.0612	32	1	1000	2324946.0856	164.7300	 0.0220	 1.0398	 2.0576	 3.0578	0
204	2	2	1	1	465.2868	35	1	1000	2324946.0856	164.7300	 3.0754	 4.0932	 5.1110	 6.1112	0
204	2	3	1	1	443.9595	35	1	1000	2324946.0856	164.7300	 6.1288	 7.1466	 8.1644	 9.1645	0
204	2	4	1	1	419.9733	32	1	1000	2324946.0856	164.7300	 9.1988	10.2333	11.2678	12.2679	0
204	2	5	1	1	477.7881	35	1	1000	2324946.0856	164.7300	12.3022	13.3200	14.3377	15.3378	0
204	2	6	1	1	481.1894	32	1	1000	2324946.0856	164.7300	15.3556	16.3734	17.3912	18.3913	0
204	2	7	1	1	552.7651	35	1	4000	2324946.0856	164.7300	18.4090	22.4301	23.4479	24.4480	0
204	2	8	1	1	478.3838	32	1	4000	2324946.0856	164.7300	24.4823	28.5034	29.5212	30.5214	0
204	2	9	1	1	461.3585	32	1	4000	2324946.0856	164.7300	30.5390	34.5601	35.5779	36.5780	0
204	2	10	1	1	491.7588	35	1	4000	2324946.0856	164.7300	36.5957	40.6168	41.6513	42.6514	0
204	2	11	1	1	468.3534	35	1	4000	2324946.0856	164.7300	42.6691	46.6901	47.7080	48.7081	0
204	2	12	1	1	410.9323	32	1	4000	2324946.0856	164.7300	48.7258	52.7469	53.7646	54.7648	0
204	2	13	1	1	457.6622	32	1	4000	2324946.0856	164.7300	54.7992	58.8202	59.8379	60.8380	0
204	2	14	1	1	441.3176	32	1	4000	2324946.0856	164.7300	60.8558	64.8769	65.8947	66.8948	0
204	2	15	1	1	407.9436	35	1	4000	2324946.0856	164.7300	66.9125	70.9336	71.9681	72.9682	0
204	2	16	1	1	599.8589	32	1	4000	2324946.0856	164.7300	72.9857	77.0070	78.0248	79.0249	0
204	2	17	1	1	590.8251	32	1	4000	2324946.0856	164.7300	79.0426	83.0636	84.0815	85.0816	0
204	2	18	1	1	485.8682	35	1	4000	2324946.0856	164.7300	85.1159	89.1370	90.1548	91.1550	0
204	2	19	1	1	427.5528	32	1	4000	2324946.0856	164.7300	91.1726	95.1937	96.2115	97.2117	0
204	2	20	1	1	418.9124	35	1	4000	2324946.0856	164.7300	97.2293	101.2504	102.2682	103.2683	0
204	2	21	1	1	586.6667	32	1	4000	2324946.0856	164.7300	103.2860	107.3071	108.3249	109.3250	0
204	2	22	1	1	506.8043	35	1	4000	2324946.0856	164.7300	109.3426	113.3637	114.3816	115.3817	0
204	2	23	1	1	473.2383	35	1	4000	2324946.0856	164.7300	115.4160	119.4371	120.4549	121.4551	0
204	2	24	1	1	407.6906	35	1	4000	2324946.0856	164.7300	121.4727	125.4938	126.5116	127.5117	0
204	2	25	1	1	567.4048	32	1	4000	2324946.0856	164.7300	127.5292	131.5505	132.5849	133.5851	0
204	2	26	1	1	358.8360	35	1	4000	2324946.0856	164.7300	133.6028	137.6238	138.6416	139.6418	0
204	2	27	1	1	589.8505	35	1	4000	2324946.0856	164.7300	139.6594	143.6805	144.6983	145.6985	0
204	2	28	1	1	539.8963	32	1	4000	2324946.0856	164.7300	145.7328	149.7539	150.7717	151.7718	0
204	2	29	1	1	683.9244	32	1	4000	2324946.0856	164.7300	151.7895	155.8105	156.8284	157.8285	0
204	2	30	1	1	402.3355	35	1	4000	2324946.0856	164.7300	157.8460	161.8673	162.9018	163.9019	0
204	3	1	1	1	999.5250	1	0	1000	2324946.0856	163.9054	 0.0277	 1.0454	 2.0632	 3.0635	0
204	3	2	1	1	457.8180	32	1	1000	2324946.0856	163.9054	 3.8652	 4.8997	 5.9342	 6.9343	0
204	3	3	1	1	475.2100	35	1	1000	2324946.0856	163.9054	 6.9686	 7.9864	 9.0042	10.0044	0
204	3	4	1	1	606.3538	32	1	1000	2324946.0856	163.9054	10.0220	11.0398	12.0576	13.0577	0
204	3	5	1	1	408.3614	35	1	1000	2324946.0856	163.9054	13.0754	14.0932	15.1110	16.1111	0
204	3	6	1	1	499.5000	32	1	1000	2324946.0856	163.9054	16.1287	17.1465	18.1643	19.1645	0
204	3	7	1	1	432.7679	32	1	4000	2324946.0856	163.9054	19.1988	23.2199	24.2377	25.2379	0
204	3	8	1	1	376.4423	35	1	4000	2324946.0856	163.9054	25.2555	29.2766	30.2944	31.2945	0
204	3	9	1	1	495.3739	32	1	4000	2324946.0856	163.9054	31.3121	35.3333	36.3677	37.3679	0
204	3	10	1	1	422.5459	32	1	4000	2324946.0856	163.9054	37.4022	41.4233	42.4410	43.4412	0
204	3	11	1	1	533.3403	35	1	4000	2324946.0856	163.9054	43.4589	47.4800	48.4978	49.4979	0
204	3	12	1	1	755.8635	32	1	4000	2324946.0856	163.9054	49.5323	53.5534	54.5711	55.5713	0
204	3	13	1	1	467.1611	32	1	4000	2324946.0856	163.9054	55.5890	59.6100	60.6277	61.6280	0
204	3	14	1	1	722.7642	32	1	4000	2324946.0856	163.9054	61.6456	65.6668	66.7011	67.7012	0
204	3	15	1	1	479.8755	32	1	4000	2324946.0856	163.9054	67.7357	71.7568	72.7746	73.7747	0
204	3	16	1	1	471.2406	35	1	4000	2324946.0856	163.9054	73.7923	77.8135	78.8312	79.8314	0
204	3	17	1	1	534.5613	35	1	4000	2324946.0856	163.9054	79.8657	83.8868	84.9046	85.9048	0
204	3	18	1	1	477.8959	32	1	4000	2324946.0856	163.9054	85.9224	89.9435	90.9613	91.9614	0
204	3	19	1	1	636.0423	32	0	4000	2324946.0856	163.9054	91.9790	96.0002	97.0347	98.0348	0
204	3	20	1	1	413.0358	35	1	4000	2324946.0856	163.9054	98.8200	102.8411	103.8589	104.8590	0
204	3	21	1	1	636.1233	35	1	4000	2324946.0856	163.9054	104.8767	108.8977	109.9155	110.9157	0
204	3	22	1	1	505.9993	32	1	4000	2324946.0856	163.9054	110.9500	114.9711	115.9889	116.9891	0
204	3	23	1	1	457.1942	32	1	4000	2324946.0856	163.9054	117.0067	121.0278	122.0456	123.0458	0
204	3	24	1	1	431.8991	35	1	4000	2324946.0856	163.9054	123.0633	127.0845	128.1190	129.1191	0
204	3	25	1	1	535.6145	35	1	4000	2324946.0856	163.9054	129.1366	133.1578	134.1756	135.1758	0
204	3	26	1	1	438.5167	35	1	4000	2324946.0856	163.9054	135.1934	139.2145	140.2323	141.2325	0
204	3	27	1	1	517.8564	32	1	4000	2324946.0856	163.9054	141.2668	145.2879	146.3057	147.3058	0
204	3	28	1	1	397.3826	35	1	4000	2324946.0856	163.9054	147.3235	151.3446	152.3624	153.3625	0
204	3	29	1	1	732.6408	35	1	4000	2324946.0856	163.9054	153.3802	157.4013	158.4190	159.4191	0
204	3	30	1	1	515.8818	35	1	4000	2324946.0856	163.9054	159.4368	163.4579	164.4757	165.4759	0
SUBID	BLOCK	TRIAL	REP	RUNID	RT	RESP	ACC	RSIJIT	EV_START	EV_BLOCK	EV_TRIAL	EV_RETRIEVAL	EV_PROBE	EV_RESP	EV_BLEND
204	4	1	1	2	544.2163	32	1	1000	2325570.0853	 0.0038	 0.0181	 1.0355	 2.0532	 3.0559	0
204	4	2	1	2	427.5730	35	1	1000	2325570.0853	 0.0038	 3.0872	 4.1050	 5.1228	 6.1229	0
204	4	3	1	2	526.3698	35	1	1000	2325570.0853	 0.0038	 6.1406	 7.1582	 8.1761	 9.1762	0
204	4	4	1	2	377.0900	35	1	1000	2325570.0853	 0.0038	 9.2106	10.2284	11.2462	12.2463	0
204	4	5	1	2	426.0602	32	1	1000	2325570.0853	 0.0038	12.2807	13.2984	14.3162	15.3164	0
204	4	6	1	2	389.2458	35	1	1000	2325570.0853	 0.0038	15.3340	16.3518	17.3696	18.3698	0
204	4	7	1	2	540.1757	32	1	4000	2325570.0853	 0.0038	18.3874	22.4085	23.4263	24.4264	0
204	4	8	1	2	411.4570	35	1	4000	2325570.0853	 0.0038	24.4607	28.4818	29.4999	30.5001	0
204	4	9	1	2	490.2188	32	1	4000	2325570.0853	 0.0038	30.5173	34.5385	35.5563	36.5565	0
204	4	10	1	2	441.5339	32	1	4000	2325570.0853	 0.0038	36.5741	40.5952	41.6130	42.6132	0
204	4	11	1	2	519.8381	32	1	4000	2325570.0853	 0.0038	42.6475	46.6685	47.6864	48.6865	0
204	4	12	1	2	431.2403	32	1	4000	2325570.0853	 0.0038	48.7042	52.7253	53.7430	54.7432	0
204	4	13	1	2	567.6494	32	1	4000	2325570.0853	 0.0038	54.7775	58.7819	59.7998	60.7999	0
204	4	14	1	2	454.2942	35	1	4000	2325570.0853	 0.0038	60.8175	64.8386	65.8565	66.8566	0
204	4	15	1	2	452.2916	35	1	4000	2325570.0853	 0.0038	66.8742	70.8953	71.9298	72.9299	0
204	4	16	1	2	395.1631	35	1	4000	2325570.0853	 0.0038	72.9643	76.9853	78.0032	79.0033	0
204	4	17	1	2	426.5430	35	1	4000	2325570.0853	 0.0038	79.0210	83.0420	84.0599	85.0600	0
204	4	18	1	2	554.1129	35	1	4000	2325570.0853	 0.0038	85.0943	89.1154	90.1332	91.1334	0
204	4	19	1	2	559.9938	32	1	4000	2325570.0853	 0.0038	91.1510	95.1721	96.1899	97.1901	0
204	4	20	1	2	632.0991	32	1	4000	2325570.0853	 0.0038	97.2076	101.2288	102.2466	103.2467	0
204	4	21	1	2	479.2211	35	1	4000	2325570.0853	 0.0038	103.2809	107.3022	108.3200	109.3201	0
204	4	22	1	2	382.2941	35	1	4000	2325570.0853	 0.0038	109.3377	113.3588	114.3766	115.3768	0
204	4	23	1	2	491.8252	32	1	4000	2325570.0853	 0.0038	115.4111	119.4322	120.4500	121.4502	0
204	4	24	1	2	428.4641	35	1	4000	2325570.0853	 0.0038	121.4678	125.4888	126.5067	127.5068	0
204	4	25	1	2	537.9986	35	1	4000	2325570.0853	 0.0038	127.5244	131.5456	132.5800	133.5801	0
204	4	26	1	2	425.6814	35	1	4000	2325570.0853	 0.0038	133.6145	137.6356	138.6534	139.6536	0
204	4	27	1	2	392.2242	35	1	4000	2325570.0853	 0.0038	139.6712	143.6923	144.7101	145.7103	0
204	4	28	1	2	407.0288	35	1	4000	2325570.0853	 0.0038	145.7446	149.7657	150.7835	151.7836	0
204	4	29	1	2	454.2582	32	1	4000	2325570.0853	 0.0038	151.8013	155.8223	156.8401	157.8403	0
204	4	30	1	2	438.2219	32	1	4000	2325570.0853	 0.0038	157.8579	161.8790	162.8968	163.8969	0
204	5	1	1	2	518.3746	35	1	1000	2325570.0853	163.9008	 0.0131	 1.0309	 2.0487	 3.0489	0
204	5	2	1	2	519.5128	35	1	1000	2325570.0853	163.9008	 3.0832	 4.1176	 5.1521	 6.1524	0
204	5	3	1	2	457.0835	32	1	1000	2325570.0853	163.9008	 6.1699	 7.1877	 8.2055	 9.2058	0
204	5	4	1	2	460.9114	35	1	1000	2325570.0853	163.9008	 9.2233	10.2411	11.2588	12.2590	0
204	5	5	1	2	415.7477	32	1	1000	2325570.0853	163.9008	12.2766	13.2944	14.3121	15.3122	0
204	5	6	1	2	433.6670	32	0	1000	2325570.0853	163.9008	15.3300	16.3478	17.3656	18.3657	0
204	5	7	1	2	432.6631	32	1	4000	2325570.0853	163.9008	19.1843	23.2053	24.2230	25.2232	0
204	5	8	1	2	375.1165	35	1	4000	2325570.0853	163.9008	25.2410	29.2621	30.2798	31.2800	0
204	5	9	1	2	550.5656	32	1	4000	2325570.0853	163.9008	31.2976	35.3187	36.3364	37.3366	0
204	5	10	1	2	439.0380	32	1	4000	2325570.0853	163.9008	37.3542	41.3754	42.3932	43.3933	0
204	5	11	1	2	484.7955	35	1	4000	2325570.0853	163.9008	43.4110	47.4321	48.4498	49.4500	0
204	5	12	1	2	395.9595	35	1	4000	2325570.0853	163.9008	49.4844	53.5055	54.5233	55.5234	0
204	5	13	1	2	379.0771	35	1	4000	2325570.0853	163.9008	55.5411	59.5621	60.5799	61.5801	0
204	5	14	1	2	507.0231	35	1	4000	2325570.0853	163.9008	61.5977	65.6188	66.6366	67.6368	0
204	5	15	1	2	409.9813	35	1	4000	2325570.0853	163.9008	67.6544	71.6755	72.6933	73.6934	0
204	5	16	1	2	489.2376	35	1	4000	2325570.0853	163.9008	73.7110	77.7322	78.7500	79.7501	0
204	5	17	1	2	440.0560	35	1	4000	2325570.0853	163.9008	79.7844	83.8056	84.8233	85.8235	0
204	5	18	1	2	430.5982	35	1	4000	2325570.0853	163.9008	85.8411	89.8623	90.8801	91.8802	0
204	5	19	1	2	470.9558	32	1	4000	2325570.0853	163.9008	91.8978	95.9189	96.9367	97.9369	0
204	5	20	1	2	589.9917	32	0	4000	2325570.0853	163.9008	97.9544	101.9756	102.9934	103.9935	0
204	5	21	1	2	509.8867	32	1	4000	2325570.0853	163.9008	104.7787	108.7997	109.8343	110.8344	0
204	5	22	1	2	523.6200	32	1	4000	2325570.0853	163.9008	110.8688	114.8898	115.9077	116.9078	0
204	5	23	1	2	450.3249	35	1	4000	2325570.0853	163.9008	116.9254	120.9465	121.9643	122.9645	0
204	5	24	1	2	546.6777	35	1	4000	2325570.0853	163.9008	122.9988	127.0031	128.0210	129.0211	0
204	5	25	1	2	378.1826	35	1	4000	2325570.0853	163.9008	129.0388	133.0599	134.0777	135.0778	0
204	5	26	1	2	425.4110	32	1	4000	2325570.0853	163.9008	135.0955	139.1166	140.1344	141.1345	0
204	5	27	1	2	488.0639	32	1	4000	2325570.0853	163.9008	141.1688	145.1899	146.2076	147.2078	0
204	5	28	1	2	391.1627	35	1	4000	2325570.0853	163.9008	147.2254	151.2466	152.2644	153.2646	0
204	5	29	1	2	573.5630	32	1	4000	2325570.0853	163.9008	153.2989	157.3200	158.3378	159.3379	0
204	5	30	1	2	437.6582	32	1	4000	2325570.0853	163.9008	159.3556	163.3766	164.3944	165.3945	0
204	6	1	1	2	611.9462	35	1	1000	2325570.0853	165.3980	 0.0326	 1.0504	 2.0681	 3.0683	0
204	6	2	1	2	542.2288	32	1	1000	2325570.0853	165.3980	 3.0859	 4.1036	 5.1215	 6.1217	0
204	6	3	1	2	432.9191	32	1	1000	2325570.0853	165.3980	 6.1393	 7.1571	 8.1749	 9.1751	0
204	6	4	1	2	611.6942	32	1	1000	2325570.0853	165.3980	 9.1927	10.2105	11.2283	12.2284	0
204	6	5	1	2	547.4875	35	1	1000	2325570.0853	165.3980	12.2627	13.2972	14.3317	15.3318	0
204	6	6	1	2	366.1481	35	1	1000	2325570.0853	165.3980	15.3662	16.3839	17.4018	18.4019	0
204	6	7	1	2	397.5573	35	1	4000	2325570.0853	165.3980	18.4195	22.4406	23.4584	24.4586	0
204	6	8	1	2	387.2616	35	1	4000	2325570.0853	165.3980	24.4762	28.4972	29.5318	30.5319	0
204	6	9	1	2	442.3060	35	1	4000	2325570.0853	165.3980	30.5663	34.5874	35.6052	36.6053	0
204	6	10	1	2	504.8304	32	1	4000	2325570.0853	165.3980	36.6229	40.6441	41.6618	42.6620	0
204	6	11	1	2	496.0944	32	1	4000	2325570.0853	165.3980	42.6963	46.7006	47.7185	48.7186	0
204	6	12	1	2	408.8452	35	1	4000	2325570.0853	165.3980	48.7363	52.7574	53.7752	54.7753	0
204	6	13	1	2	502.7212	32	1	4000	2325570.0853	165.3980	54.7930	58.8141	59.8486	60.8487	0
204	6	14	1	2	557.7606	32	1	4000	2325570.0853	165.3980	60.8831	64.9041	65.9219	66.9221	0
204	6	15	1	2	453.1168	32	1	4000	2325570.0853	165.3980	66.9397	70.9608	71.9786	72.9788	0
204	6	16	1	2	491.4054	32	1	4000	2325570.0853	165.3980	73.0131	77.0342	78.0520	79.0521	0
204	6	17	1	2	491.1897	32	1	4000	2325570.0853	165.3980	79.0698	83.0908	84.1087	85.1088	0
204	6	18	1	2	417.0973	32	1	4000	2325570.0853	165.3980	85.1265	89.1476	90.1820	91.1822	0
204	6	19	1	2	520.5354	32	1	4000	2325570.0853	165.3980	91.2165	95.2376	96.2554	97.2556	0
204	6	20	1	2	742.9297	35	1	4000	2325570.0853	165.3980	97.2732	101.2943	102.3121	103.3122	0
204	6	21	1	2	518.1463	32	1	4000	2325570.0853	165.3980	103.3466	107.3677	108.3854	109.3856	0
204	6	22	1	2	509.0246	35	1	4000	2325570.0853	165.3980	109.4032	113.4243	114.4421	115.4423	0
204	6	23	1	2	467.3912	35	1	4000	2325570.0853	165.3980	115.4599	119.4810	120.5157	121.5160	0
204	6	24	1	2	420.0113	35	1	4000	2325570.0853	165.3980	121.5333	125.5544	126.5722	127.5723	0
204	6	25	1	2	434.1629	35	1	4000	2325570.0853	165.3980	127.5900	131.6111	132.6289	133.6290	0
204	6	26	1	2	481.5677	32	1	4000	2325570.0853	165.3980	133.6633	137.6845	138.7022	139.7024	0
204	6	27	1	2	479.8660	32	1	4000	2325570.0853	165.3980	139.7200	143.7411	144.7589	145.7591	0
204	6	28	1	2	423.6739	35	1	4000	2325570.0853	165.3980	145.7767	149.7978	150.8323	151.8324	0
204	6	29	1	2	398.2991	35	1	4000	2325570.0853	165.3980	151.8501	155.8712	156.8890	157.8891	0
204	6	30	1	2	373.4901	35	1	4000	2325570.0853	165.3980	157.9068	161.9279	162.9456	163.9458	0
SUBID	BLOCK	TRIAL	REP	RUNID	RT	RESP	ACC	RSIJIT	EV_START	EV_BLOCK	EV_TRIAL	EV_RETRIEVAL	EV_PROBE	EV_RESP	EV_BLEND
204	7	1	1	3	541.7138	32	1	1000	2326196.4692	 0.0040	 0.0202	 1.0540	 2.0717	 3.0743	0
204	7	2	1	3	480.1949	35	1	1000	2326196.4692	 0.0040	 3.1057	 4.1402	 5.1747	 6.1748	0
204	7	3	1	3	563.0107	32	1	1000	2326196.4692	 0.0040	 6.2091	 7.2269	 8.2447	 9.2449	0
204	7	4	1	3	420.7555	32	1	1000	2326196.4692	 0.0040	 9.2625	10.2803	11.2981	12.2983	0
204	7	5	1	3	431.7029	32	1	1000	2326196.4692	 0.0040	12.3159	13.3337	14.3515	15.3516	0
204	7	6	1	3	371.1225	35	1	1000	2326196.4692	 0.0040	15.3693	16.3870	17.4048	18.4050	0
204	7	7	1	3	401.7172	35	1	4000	2326196.4692	 0.0040	18.4393	22.4604	23.4782	24.4783	0
204	7	8	1	3	440.8511	35	1	4000	2326196.4692	 0.0040	24.4960	28.5171	29.5349	30.5350	0
204	7	9	1	3	456.1782	32	1	4000	2326196.4692	 0.0040	30.5527	34.5738	35.5916	36.5917	0
204	7	10	1	3	445.8849	32	1	4000	2326196.4692	 0.0040	36.6260	40.6471	41.6649	42.6651	0
204	7	11	1	3	485.8677	35	1	4000	2326196.4692	 0.0040	42.6828	46.7038	47.7216	48.7218	0
204	7	12	1	3	380.9638	35	1	4000	2326196.4692	 0.0040	48.7561	52.7772	53.7950	54.7952	0
204	7	13	1	3	427.1232	32	1	4000	2326196.4692	 0.0040	54.8128	58.8339	59.8517	60.8518	0
204	7	14	1	3	546.9162	32	1	4000	2326196.4692	 0.0040	60.8694	64.8906	65.9250	66.9252	0
204	7	15	1	3	656.8879	32	0	4000	2326196.4692	 0.0040	66.9595	70.9806	71.9984	72.9985	0
204	7	16	1	3	457.5558	32	1	4000	2326196.4692	 0.0040	73.7837	77.8047	78.8226	79.8228	0
204	7	17	1	3	487.7603	35	1	4000	2326196.4692	 0.0040	79.8571	83.8781	84.8960	85.8961	0
204	7	18	1	3	478.7967	35	1	4000	2326196.4692	 0.0040	85.9137	89.9348	90.9526	91.9527	0
204	7	19	1	3	366.0814	35	1	4000	2326196.4692	 0.0040	91.9703	95.9915	97.0259	98.0260	0
204	7	20	1	3	445.1522	35	1	4000	2326196.4692	 0.0040	98.0438	102.0649	103.0827	104.0828	0
204	7	21	1	3	356.4793	35	1	4000	2326196.4692	 0.0040	104.1005	108.1216	109.1394	110.1396	0
204	7	22	1	3	426.3619	35	1	4000	2326196.4692	 0.0040	110.1738	114.1949	115.2127	116.2129	0
204	7	23	1	3	354.1966	35	1	4000	2326196.4692	 0.0040	116.2306	120.2516	121.2694	122.2696	0
204	7	24	1	3	528.1888	32	1	4000	2326196.4692	 0.0040	122.2872	126.3083	127.3427	128.3429	0
204	7	25	1	3	423.7528	32	1	4000	2326196.4692	 0.0040	128.3605	132.3817	133.3995	134.3997	0
204	7	26	1	3	439.3447	35	1	4000	2326196.4692	 0.0040	134.4172	138.4384	139.4562	140.4563	0
204	7	27	1	3	413.2978	35	1	4000	2326196.4692	 0.0040	140.4907	144.5117	145.5295	146.5297	0
204	7	28	1	3	380.6266	35	1	4000	2326196.4692	 0.0040	146.5473	150.5684	151.5862	152.5863	0
204	7	29	1	3	492.1866	32	1	4000	2326196.4692	 0.0040	152.6040	156.6250	157.6596	158.6597	0
204	7	30	1	3	523.3388	35	1	4000	2326196.4692	 0.0040	158.6774	162.6984	163.7162	164.7164	0
204	8	1	1	3	558.3810	32	1	1000	2326196.4692	164.7203	 0.0200	 1.0544	 2.0722	 3.0724	0
204	8	2	1	3	496.7030	35	1	1000	2326196.4692	164.7203	 3.0900	 4.1077	 5.1256	 6.1257	0
204	8	3	1	3	387.4197	35	1	1000	2326196.4692	164.7203	 6.1433	 7.1611	 8.1790	 9.1791	0
204	8	4	1	3	567.0295	32	1	1000	2326196.4692	164.7203	 9.1968	10.2145	11.2323	12.2325	0
204	8	5	1	3	417.4497	32	1	1000	2326196.4692	164.7203	12.2501	13.2679	14.2857	15.2858	0
204	8	6	1	3	466.4366	35	1	1000	2326196.4692	164.7203	15.3201	16.3546	17.3724	18.3726	0
204	8	7	1	3	402.4549	35	1	4000	2326196.4692	164.7203	18.3902	22.4114	23.4291	24.4293	0
204	8	8	1	3	528.5769	35	1	4000	2326196.4692	164.7203	24.4469	28.4680	29.4858	30.4859	0
204	8	9	1	3	455.8854	32	1	4000	2326196.4692	164.7203	30.5203	34.5413	35.5592	36.5593	0
204	8	10	1	3	390.5957	35	1	4000	2326196.4692	164.7203	36.5770	40.5981	41.6158	42.6159	0
204	8	11	1	3	454.4281	35	1	4000	2326196.4692	164.7203	42.6337	46.6547	47.6725	48.6727	0
204	8	12	1	3	629.9350	32	1	4000	2326196.4692	164.7203	48.6903	52.7114	53.7293	54.7294	0
204	8	13	1	3	420.8126	35	1	4000	2326196.4692	164.7203	54.7470	58.7681	59.7859	60.7860	0
204	8	14	1	3	539.3859	35	1	4000	2326196.4692	164.7203	60.8204	64.8415	65.8593	66.8595	0
204	8	15	1	3	539.3608	32	1	4000	2326196.4692	164.7203	66.8770	70.8981	71.9159	72.9161	0
204	8	16	1	3	466.3081	32	1	4000	2326196.4692	164.7203	72.9504	76.9715	77.9893	78.9895	0
204	8	17	1	3	377.2342	35	1	4000	2326196.4692	164.7203	79.0071	83.0282	84.0460	85.0461	0
204	8	18	1	3	423.8500	35	1	4000	2326196.4692	164.7203	85.0637	89.0849	90.1027	91.1028	0
204	8	19	1	3	414.7628	35	1	4000	2326196.4692	164.7203	91.1372	95.1582	96.1760	97.1762	0
204	8	20	1	3	566.1007	35	1	4000	2326196.4692	164.7203	97.1938	101.2149	102.2327	103.2329	0
204	8	21	1	3	565.2989	32	1	4000	2326196.4692	164.7203	103.2672	107.2716	108.2894	109.2895	0
204	8	22	1	3	564.8326	35	1	4000	2326196.4692	164.7203	109.3072	113.3283	114.3461	115.3462	0
204	8	23	1	3	437.1138	32	1	4000	2326196.4692	164.7203	115.3639	119.3850	120.4028	121.4029	0
204	8	24	1	3	490.2624	35	1	4000	2326196.4692	164.7203	121.4373	125.4583	126.4762	127.4763	0
204	8	25	1	3	442.4984	32	1	4000	2326196.4692	164.7203	127.4939	131.5150	132.5327	133.5329	0
204	8	26	1	3	538.1130	32	1	4000	2326196.4692	164.7203	133.5673	137.5717	138.5895	139.5896	0
204	8	27	1	3	536.4210	32	1	4000	2326196.4692	164.7203	139.6073	143.6284	144.6461	145.6463	0
204	8	28	1	3	456.9915	35	1	4000	2326196.4692	164.7203	145.6640	149.6851	150.7028	151.7030	0
204	8	29	1	3	614.4942	32	1	4000	2326196.4692	164.7203	151.7373	155.7585	156.7762	157.7764	0
204	8	30	1	3	557.5999	35	1	4000	2326196.4692	164.7203	157.7940	161.8151	162.8329	163.8331	0
204	9	1	1	3	475.0441	32	1	1000	2326196.4692	163.8365	 0.0086	 1.0265	 2.0443	 3.0445	0
204	9	2	1	3	646.3498	32	1	1000	2326196.4692	163.8365	 3.0621	 4.0799	 5.0977	 6.0978	0
204	9	3	1	3	432.0603	32	1	1000	2326196.4692	163.8365	 6.1155	 7.1333	 8.1511	 9.1512	0
204	9	4	1	3	384.4957	32	0	1000	2326196.4692	163.8365	 9.1856	10.2199	11.2545	12.2546	0
204	9	5	1	3	524.6441	32	1	1000	2326196.4692	163.8365	13.0398	14.0576	15.0754	16.0755	0
204	9	6	1	3	454.9517	32	1	1000	2326196.4692	163.8365	16.0932	17.1109	18.1287	19.1289	0
204	9	7	1	3	414.0205	35	1	4000	2326196.4692	163.8365	19.1465	23.1677	24.1854	25.1856	0
204	9	8	1	3	492.2049	32	1	4000	2326196.4692	163.8365	25.2199	29.2410	30.2588	31.2589	0
204	9	9	1	3	492.7400	32	1	4000	2326196.4692	163.8365	31.2765	35.2977	36.3155	37.3156	0
204	9	10	1	3	482.0642	32	1	4000	2326196.4692	163.8365	37.3500	41.3710	42.3888	43.3890	0
204	9	11	1	3	577.9143	32	1	4000	2326196.4692	163.8365	43.4066	47.4277	48.4455	49.4457	0
204	9	12	1	3	432.6388	32	1	4000	2326196.4692	163.8365	49.4633	53.4844	54.5022	55.5024	0
204	9	13	1	3	463.2662	32	1	4000	2326196.4692	163.8365	55.5366	59.5577	60.5756	61.5757	0
204	9	14	1	3	463.6117	35	1	4000	2326196.4692	163.8365	61.5934	65.6145	66.6323	67.6324	0
204	9	15	1	3	437.5992	32	1	4000	2326196.4692	163.8365	67.6667	71.6878	72.7056	73.7058	0
204	9	16	1	3	437.2678	35	1	4000	2326196.4692	163.8365	73.7234	77.7445	78.7623	79.7625	0
204	9	17	1	3	644.4454	35	1	4000	2326196.4692	163.8365	79.7801	83.8012	84.8190	85.8191	0
204	9	18	1	3	475.2278	35	1	4000	2326196.4692	163.8365	85.8535	89.8746	90.8923	91.8925	0
204	9	19	1	3	473.8044	32	1	4000	2326196.4692	163.8365	91.9100	95.9312	96.9491	97.9492	0
204	9	20	1	3	378.4271	35	1	4000	2326196.4692	163.8365	97.9835	101.9878	103.0057	104.0058	0
204	9	21	1	3	624.5063	35	1	4000	2326196.4692	163.8365	104.0235	108.0446	109.0624	110.0625	0
204	9	22	1	3	455.8772	35	1	4000	2326196.4692	163.8365	110.0801	114.1013	115.1191	116.1192	0
204	9	23	1	3	519.8485	32	1	4000	2326196.4692	163.8365	116.1535	120.1746	121.1924	122.1926	0
204	9	24	1	3	478.0767	35	0	4000	2326196.4692	163.8365	122.2102	126.2312	127.2490	128.2491	0
204	9	25	1	3	678.2621	32	1	4000	2326196.4692	163.8365	129.0511	133.0721	134.0899	135.0901	0
204	9	26	1	3	557.7179	32	1	4000	2326196.4692	163.8365	135.1077	139.1288	140.1465	141.1467	0
204	9	27	1	3	499.8564	35	1	4000	2326196.4692	163.8365	141.1645	145.1855	146.2201	147.2202	0
204	9	28	1	3	450.8367	32	1	4000	2326196.4692	163.8365	147.2545	151.2756	152.2934	153.2935	0
204	9	29	1	3	569.6624	35	1	4000	2326196.4692	163.8365	153.3111	157.3323	158.3500	159.3501	0
204	9	30	1	3	447.9403	32	1	4000	2326196.4692	163.8365	159.3846	163.4057	164.4235	165.4236	0
SUBID	BLOCK	TRIAL	REP	RUNID	RT	RESP	ACC	RSIJIT	EV_START	EV_BLOCK	EV_TRIAL	EV_RETRIEVAL	EV_PROBE	EV_RESP	EV_BLEND
204	10	1	1	4	542.1513	32	1	1000	2326836.4295	 0.0038	 0.0116	 1.0289	 2.0467	 3.0493	0
204	10	2	1	4	426.0366	32	1	1000	2326836.4295	 0.0038	 3.0808	 4.0986	 5.1164	 6.1165	0
204	10	3	1	4	420.5623	32	1	1000	2326836.4295	 0.0038	 6.1342	 7.1518	 8.1697	 9.1699	0
204	10	4	1	4	575.5207	32	1	1000	2326836.4295	 0.0038	 9.1874	10.2053	11.2231	12.2233	0
204	10	5	1	4	416.3018	35	1	1000	2326836.4295	 0.0038	12.2575	13.2921	14.3098	15.3100	0
204	10	6	1	4	443.6799	35	1	1000	2326836.4295	 0.0038	15.3276	16.3454	17.3632	18.3633	0
204	10	7	1	4	490.1230	32	1	4000	2326836.4295	 0.0038	18.3810	22.4021	23.4199	24.4200	0
204	10	8	1	4	586.1155	32	1	4000	2326836.4295	 0.0038	24.4376	28.4588	29.4766	30.4767	0
204	10	9	1	4	417.2284	35	1	4000	2326836.4295	 0.0038	30.4944	34.5155	35.5333	36.5335	0
204	10	10	1	4	376.7760	35	1	4000	2326836.4295	 0.0038	36.5510	40.5722	41.5899	42.5901	0
204	10	11	1	4	431.3100	35	1	4000	2326836.4295	 0.0038	42.6244	46.6455	47.6633	48.6634	0
204	10	12	1	4	542.2084	32	1	4000	2326836.4295	 0.0038	48.6811	52.7022	53.7200	54.7201	0
204	10	13	1	4	486.5169	32	1	4000	2326836.4295	 0.0038	54.7377	58.7589	59.7766	60.7768	0
204	10	14	1	4	485.4224	32	1	4000	2326836.4295	 0.0038	60.7945	64.8155	65.8334	66.8335	0
204	10	15	1	4	404.8365	35	1	4000	2326836.4295	 0.0038	66.8512	70.8723	71.8900	72.8902	0
204	10	16	1	4	459.7425	35	1	4000	2326836.4295	 0.0038	72.9245	76.9456	77.9634	78.9637	0
204	10	17	1	4	466.5566	32	0	4000	2326836.4295	 0.0038	78.9811	83.0023	84.0200	85.0202	0
204	10	18	1	4	450.1318	35	1	4000	2326836.4295	 0.0038	85.8221	89.8432	90.8609	91.8611	0
204	10	19	1	4	656.4698	35	1	4000	2326836.4295	 0.0038	91.8786	95.8999	96.9177	97.9178	0
204	10	20	1	4	431.7942	35	1	4000	2326836.4295	 0.0038	97.9354	101.9565	102.9743	103.9745	0
204	10	21	1	4	415.1546	35	1	4000	2326836.4295	 0.0038	104.0088	108.0299	109.0477	110.0479	0
204	10	22	1	4	454.3560	35	1	4000	2326836.4295	 0.0038	110.0655	114.0866	115.1044	116.1045	0
204	10	23	1	4	477.1583	32	1	4000	2326836.4295	 0.0038	116.1388	120.1600	121.1777	122.1779	0
204	10	24	1	4	483.8842	32	1	4000	2326836.4295	 0.0038	122.1955	126.2166	127.2344	128.2346	0
204	10	25	1	4	435.3300	32	1	4000	2326836.4295	 0.0038	128.2522	132.2733	133.2911	134.2913	0
204	10	26	1	4	474.8189	32	1	4000	2326836.4295	 0.0038	134.3256	138.3467	139.3645	140.3646	0
204	10	27	1	4	458.0807	35	1	4000	2326836.4295	 0.0038	140.3823	144.4033	145.4212	146.4213	0
204	10	28	1	4	481.1434	35	1	4000	2326836.4295	 0.0038	146.4555	150.4599	151.4778	152.4780	0
204	10	29	1	4	496.7071	35	1	4000	2326836.4295	 0.0038	152.4956	156.5167	157.5345	158.5347	0
204	10	30	1	4	574.7528	32	1	4000	2326836.4295	 0.0038	158.5523	162.5734	163.5911	164.5912	0
204	11	1	1	4	441.6336	32	1	1000	2326836.4295	164.5952	 0.0179	 1.0357	 2.0535	 3.0537	0
204	11	2	1	4	434.9847	35	1	1000	2326836.4295	164.5952	 3.0880	 4.1057	 5.1235	 6.1237	0
204	11	3	1	4	412.5796	35	1	1000	2326836.4295	164.5952	 6.1580	 7.1925	 8.2103	 9.2104	0
204	11	4	1	4	399.1803	35	1	1000	2326836.4295	164.5952	 9.2281	10.2457	11.2636	12.2638	0
204	11	5	1	4	369.6815	35	1	1000	2326836.4295	164.5952	12.2813	13.2992	14.3170	15.3172	0
204	11	6	1	4	348.2234	35	1	1000	2326836.4295	164.5952	15.3348	16.3526	17.3704	18.3705	0
204	11	7	1	4	395.7813	35	1	4000	2326836.4295	164.5952	18.4049	22.4260	23.4437	24.4439	0
204	11	8	1	4	442.0100	35	1	4000	2326836.4295	164.5952	24.4615	28.4826	29.5004	30.5006	0
204	11	9	1	4	466.3192	32	1	4000	2326836.4295	164.5952	30.5182	34.5393	35.5571	36.5572	0
204	11	10	1	4	527.6886	32	1	4000	2326836.4295	164.5952	36.5916	40.6126	41.6305	42.6306	0
204	11	11	1	4	480.2930	32	1	4000	2326836.4295	164.5952	42.6483	46.6694	47.6872	48.6873	0
204	11	12	1	4	415.0624	35	1	4000	2326836.4295	164.5952	48.7217	52.7427	53.7605	54.7607	0
204	11	13	1	4	453.6574	32	1	4000	2326836.4295	164.5952	54.7782	58.7995	59.8172	60.8173	0
204	11	14	1	4	604.4444	35	1	4000	2326836.4295	164.5952	60.8350	64.8561	65.8739	66.8740	0
204	11	15	1	4	484.1151	35	1	4000	2326836.4295	164.5952	66.9083	70.9293	71.9473	72.9474	0
204	11	16	1	4	450.7717	32	1	4000	2326836.4295	164.5952	72.9650	76.9862	78.0039	79.0041	0
204	11	17	1	4	994.6239	32	1	4000	2326836.4295	164.5952	79.0384	83.0427	84.0606	85.0608	0
204	11	18	1	4	481.8039	35	1	4000	2326836.4295	164.5952	85.0784	89.0995	90.1173	91.1174	0
204	11	19	1	4	648.7901	32	1	4000	2326836.4295	164.5952	91.1351	95.1562	96.1740	97.1741	0
204	11	20	1	4	583.1990	32	1	4000	2326836.4295	164.5952	97.2085	101.2296	102.2473	103.2475	0
204	11	21	1	4	398.1655	35	1	4000	2326836.4295	164.5952	103.2651	107.2862	108.3040	109.3042	0
204	11	22	1	4	629.6898	32	1	4000	2326836.4295	164.5952	109.3385	113.3596	114.3774	115.3775	0
204	11	23	1	4	460.8135	32	1	4000	2326836.4295	164.5952	115.3952	119.4162	120.4341	121.4343	0
204	11	24	1	4	516.1786	32	1	4000	2326836.4295	164.5952	121.4519	125.4730	126.4908	127.4909	0
204	11	25	1	4	546.1760	35	1	4000	2326836.4295	164.5952	127.5252	131.5463	132.5641	133.5643	0
204	11	26	1	4	450.5488	32	1	4000	2326836.4295	164.5952	133.5819	137.6030	138.6208	139.6209	0
204	11	27	1	4	392.9468	32	1	4000	2326836.4295	164.5952	139.6553	143.6764	144.6942	145.6943	0
204	11	28	1	4	424.7906	32	1	4000	2326836.4295	164.5952	145.7120	149.7331	150.7509	151.7510	0
204	11	29	1	4	367.0679	35	1	4000	2326836.4295	164.5952	151.7686	155.7898	156.8075	157.8077	0
204	11	30	1	4	477.5937	32	1	4000	2326836.4295	164.5952	157.8420	161.8631	162.8809	163.8811	0
204	12	1	1	4	431.3103	32	1	1000	2326836.4295	163.8845	 0.0292	 1.0470	 2.0648	 3.0650	0
204	12	2	1	4	440.5302	32	1	1000	2326836.4295	163.8845	 3.0993	 4.1337	 5.1515	 6.1517	0
204	12	3	1	4	474.2516	32	1	1000	2326836.4295	163.8845	 6.1693	 7.1871	 8.2049	 9.2050	0
204	12	4	1	4	405.3472	32	1	1000	2326836.4295	163.8845	 9.2227	10.2405	11.2583	12.2584	0
204	12	5	1	4	408.3894	35	1	1000	2326836.4295	163.8845	12.2761	13.2939	14.3117	15.3118	0
204	12	6	1	4	498.6585	35	1	1000	2326836.4295	163.8845	15.3294	16.3472	17.3650	18.3652	0
204	12	7	1	4	466.1779	32	1	4000	2326836.4295	163.8845	18.3994	22.4209	23.4383	24.4384	0
204	12	8	1	4	433.4680	35	1	4000	2326836.4295	163.8845	24.4562	28.4772	29.4951	30.4952	0
204	12	9	1	4	432.7494	35	1	4000	2326836.4295	163.8845	30.5129	34.5340	35.5518	36.5519	0
204	12	10	1	4	470.8583	35	1	4000	2326836.4295	163.8845	36.5695	40.5906	41.6084	42.6086	0
204	12	11	1	4	383.0196	35	0	4000	2326836.4295	163.8845	42.6262	46.6474	47.6651	48.6653	0
204	12	12	1	4	541.8663	32	1	4000	2326836.4295	163.8845	49.4838	53.5049	54.5226	55.5228	0
204	12	13	1	4	443.7673	35	1	4000	2326836.4295	163.8845	55.5404	59.5615	60.5794	61.5795	0
204	12	14	1	4	483.3668	35	1	4000	2326836.4295	163.8845	61.6138	65.6349	66.6527	67.6529	0
204	12	15	1	4	466.1490	32	1	4000	2326836.4295	163.8845	67.6705	71.6916	72.7094	73.7096	0
204	12	16	1	4	401.2761	32	1	4000	2326836.4295	163.8845	73.7272	77.7483	78.7661	79.7662	0
204	12	17	1	4	528.5123	32	1	4000	2326836.4295	163.8845	79.8006	83.8217	84.8394	85.8396	0
204	12	18	1	4	527.0908	35	1	4000	2326836.4295	163.8845	85.8573	89.8783	90.8961	91.8963	0
204	12	19	1	4	518.5912	32	1	4000	2326836.4295	163.8845	91.9306	95.9349	96.9528	97.9530	0
204	12	20	1	4	493.7262	35	1	4000	2326836.4295	163.8845	97.9705	101.9917	103.0095	104.0096	0
204	12	21	1	4	453.8365	35	1	4000	2326836.4295	163.8845	104.0273	108.0484	109.0661	110.0663	0
204	12	22	1	4	371.5986	35	1	4000	2326836.4295	163.8845	110.1007	114.1218	115.1396	116.1397	0
204	12	23	1	4	484.2578	35	1	4000	2326836.4295	163.8845	116.1573	120.1784	121.1962	122.1963	0
204	12	24	1	4	458.5060	35	1	4000	2326836.4295	163.8845	122.2307	126.2352	127.2529	128.2531	0
204	12	25	1	4	497.6018	35	1	4000	2326836.4295	163.8845	128.2707	132.2918	133.3096	134.3097	0
204	12	26	1	4	561.2016	32	1	4000	2326836.4295	163.8845	134.3274	138.3485	139.3663	140.3664	0
204	12	27	1	4	448.5373	32	1	4000	2326836.4295	163.8845	140.4006	144.4218	145.4397	146.4398	0
204	12	28	1	4	415.7274	35	1	4000	2326836.4295	163.8845	146.4573	150.4785	151.4962	152.4964	0
204	12	29	1	4	431.1999	35	1	4000	2326836.4295	163.8845	152.5308	156.5351	157.5530	158.5532	0
204	12	30	1	4	510.5904	35	1	4000	2326836.4295	163.8845	158.5708	162.5919	163.6097	164.6098	0
SUBID	BLOCK	TRIAL	REP	RUNID	RT	RESP	ACC	RSIJIT	EV_START	EV_BLOCK	EV_TRIAL	EV_RETRIEVAL	EV_PROBE	EV_RESP	EV_BLEND
204	13	1	1	5	500.4349	32	1	1000	2327623.0220	 0.0041	 0.0135	 1.0306	 2.0484	 3.0510	0
204	13	2	1	5	432.8127	32	1	1000	2327623.0220	 0.0041	 3.0825	 4.1003	 5.1181	 6.1182	0
204	13	3	1	5	514.5561	32	1	1000	2327623.0220	 0.0041	 6.1358	 7.1536	 8.1715	 9.1716	0
204	13	4	1	5	462.7395	35	1	1000	2327623.0220	 0.0041	 9.1892	10.2070	11.2248	12.2249	0
204	13	5	1	5	422.4342	35	1	1000	2327623.0220	 0.0041	12.2592	13.2937	14.3282	15.3284	0
204	13	6	1	5	409.7551	32	1	1000	2327623.0220	 0.0041	15.3460	16.3638	17.3816	18.3818	0
204	13	7	1	5	567.7120	32	0	4000	2327623.0220	 0.0041	18.3994	22.4205	23.4383	24.4385	0
204	13	8	1	5	383.7625	35	1	4000	2327623.0220	 0.0041	25.2403	29.2612	30.2792	31.2793	0
204	13	9	1	5	430.2705	32	1	4000	2327623.0220	 0.0041	31.2969	35.3181	36.3358	37.3360	0
204	13	10	1	5	422.5164	35	1	4000	2327623.0220	 0.0041	37.3536	41.3747	42.3925	43.3926	0
204	13	11	1	5	517.6121	35	1	4000	2327623.0220	 0.0041	43.4270	47.4480	48.4658	49.4660	0
204	13	12	1	5	403.4983	32	1	4000	2327623.0220	 0.0041	49.4837	53.5047	54.5226	55.5227	0
204	13	13	1	5	603.2117	32	1	4000	2327623.0220	 0.0041	55.5404	59.5614	60.5793	61.5794	0
204	13	14	1	5	459.1906	32	1	4000	2327623.0220	 0.0041	61.5970	65.6181	66.6359	67.6361	0
204	13	15	1	5	466.3790	35	1	4000	2327623.0220	 0.0041	67.6537	71.6748	72.6926	73.6928	0
204	13	16	1	5	496.2431	35	1	4000	2327623.0220	 0.0041	73.7271	77.7482	78.7660	79.7661	0
204	13	17	1	5	528.2339	35	1	4000	2327623.0220	 0.0041	79.7838	83.8049	84.8227	85.8228	0
204	13	18	1	5	478.2794	35	1	4000	2327623.0220	 0.0041	85.8571	89.8782	90.8960	91.8962	0
204	13	19	1	5	485.9498	32	1	4000	2327623.0220	 0.0041	91.9138	95.9349	96.9527	97.9528	0
204	13	20	1	5	412.9783	35	1	4000	2327623.0220	 0.0041	97.9705	101.9915	103.0094	104.0095	0
204	13	21	1	5	499.6917	35	1	4000	2327623.0220	 0.0041	104.0439	108.0650	109.0828	110.0829	0
204	13	22	1	5	467.9925	35	1	4000	2327623.0220	 0.0041	110.1006	114.1216	115.1394	116.1396	0
204	13	23	1	5	626.5388	35	1	4000	2327623.0220	 0.0041	116.1572	120.1783	121.1961	122.1963	0
204	13	24	1	5	505.7101	32	1	4000	2327623.0220	 0.0041	122.2139	126.2350	127.2528	128.2529	0
204	13	25	1	5	416.6411	32	1	4000	2327623.0220	 0.0041	128.2706	132.2917	133.3094	134.3095	0
204	13	26	1	5	463.4283	35	1	4000	2327623.0220	 0.0041	134.3440	138.3651	139.3829	140.3830	0
204	13	27	1	5	463.0623	35	1	4000	2327623.0220	 0.0041	140.4006	144.4217	145.4395	146.4397	0
204	13	28	1	5	662.0416	32	1	4000	2327623.0220	 0.0041	146.4740	150.4951	151.5129	152.5131	0
204	13	29	1	5	509.3989	32	1	4000	2327623.0220	 0.0041	152.5307	156.5517	157.5696	158.5697	0
204	13	30	1	5	444.7853	32	1	4000	2327623.0220	 0.0041	158.5874	162.6085	163.6263	164.6264	0
204	14	1	1	5	580.6733	32	1	1000	2327623.0220	164.6301	 0.0234	 1.0411	 2.0589	 3.0590	0
204	14	2	1	5	447.6052	35	1	1000	2327623.0220	164.6301	 3.0767	 4.0945	 5.1123	 6.1125	0
204	14	3	1	5	359.7035	35	1	1000	2327623.0220	164.6301	 6.1467	 7.1812	 8.2157	 9.2159	0
204	14	4	1	5	419.2248	32	1	1000	2327623.0220	164.6301	 9.2335	10.2513	11.2690	12.2691	0
204	14	5	1	5	428.4294	32	1	1000	2327623.0220	164.6301	12.2869	13.3047	14.3225	15.3226	0
204	14	6	1	5	504.1669	32	1	1000	2327623.0220	164.6301	15.3402	16.3580	17.3758	18.3759	0
204	14	7	1	5	446.4142	35	1	4000	2327623.0220	164.6301	18.3936	22.4147	23.4492	24.4493	0
204	14	8	1	5	486.5681	35	1	4000	2327623.0220	164.6301	24.4670	28.4881	29.5058	30.5059	0
204	14	9	1	5	516.5735	35	1	4000	2327623.0220	164.6301	30.5237	34.5448	35.5626	36.5627	0
204	14	10	1	5	452.4030	32	1	4000	2327623.0220	164.6301	36.5970	40.6180	41.6358	42.6360	0
204	14	11	1	5	458.6941	32	1	4000	2327623.0220	164.6301	42.6537	46.6748	47.6926	48.6928	0
204	14	12	1	5	433.7183	32	1	4000	2327623.0220	164.6301	48.7104	52.7315	53.7660	54.7661	0
204	14	13	1	5	425.2980	32	1	4000	2327623.0220	164.6301	54.7838	58.8049	59.8227	60.8228	0
204	14	14	1	5	391.7780	32	1	4000	2327623.0220	164.6301	60.8404	64.8615	65.8793	66.8794	0
204	14	15	1	5	422.7409	32	1	4000	2327623.0220	164.6301	66.9138	70.9349	71.9527	72.9528	0
204	14	16	1	5	391.1194	32	1	4000	2327623.0220	164.6301	72.9705	76.9916	78.0094	79.0095	0
204	14	17	1	5	428.7376	32	1	4000	2327623.0220	164.6301	79.0272	83.0483	84.0827	85.0829	0
204	14	18	1	5	483.4318	35	1	4000	2327623.0220	164.6301	85.1006	89.1216	90.1395	91.1396	0
204	14	19	1	5	443.6468	32	1	4000	2327623.0220	164.6301	91.1572	95.1783	96.1961	97.1963	0
204	14	20	1	5	466.0034	32	1	4000	2327623.0220	164.6301	97.2306	101.2517	102.2695	103.2696	0
204	14	21	1	5	400.9676	32	1	4000	2327623.0220	164.6301	103.2873	107.3084	108.3262	109.3263	0
204	14	22	1	5	416.4089	32	1	4000	2327623.0220	164.6301	109.3440	113.3650	114.3995	115.3997	0
204	14	23	1	5	663.3994	35	0	4000	2327623.0220	164.6301	115.4173	119.4384	120.4562	121.4564	0
204	14	24	1	5	398.2787	35	1	4000	2327623.0220	164.6301	122.2415	126.2626	127.2971	128.2973	0
204	14	25	1	5	516.8557	35	1	4000	2327623.0220	164.6301	128.3316	132.3527	133.3705	134.3706	0
204	14	26	1	5	652.1084	35	1	4000	2327623.0220	164.6301	134.3883	138.4094	139.4271	140.4273	0
204	14	27	1	5	403.3950	35	1	4000	2327623.0220	164.6301	140.4449	144.4660	145.4838	146.4840	0
204	14	28	1	5	411.2625	35	1	4000	2327623.0220	164.6301	146.5016	150.5227	151.5405	152.5407	0
204	14	29	1	5	419.0374	32	1	4000	2327623.0220	164.6301	152.5583	156.5793	157.5972	158.5974	0
204	14	30	1	5	464.6272	35	1	4000	2327623.0220	164.6301	158.6317	162.6528	163.6705	164.6707	0
204	15	1	1	5	725.1883	35	1	1000	2327623.0220	164.6741	 0.0226	 1.0403	 2.0581	 3.0583	0
204	15	2	1	5	453.0080	32	1	1000	2327623.0220	164.6741	 3.0926	 4.1270	 5.1615	 6.1617	0
204	15	3	1	5	480.8917	32	1	1000	2327623.0220	164.6741	 6.1793	 7.1971	 8.2149	 9.2150	0
204	15	4	1	5	403.1415	32	1	1000	2327623.0220	164.6741	 9.2327	10.2504	11.2683	12.2684	0
204	15	5	1	5	397.8080	32	1	1000	2327623.0220	164.6741	12.2860	13.3038	14.3216	15.3217	0
204	15	6	1	5	416.4043	35	1	1000	2327623.0220	164.6741	15.3394	16.3571	17.3750	18.3751	0
204	15	7	1	5	407.2842	35	1	4000	2327623.0220	164.6741	18.4095	22.4306	23.4484	24.4485	0
204	15	8	1	5	382.6872	35	1	4000	2327623.0220	164.6741	24.4661	28.4873	29.5051	30.5052	0
204	15	9	1	5	413.2888	35	1	4000	2327623.0220	164.6741	30.5229	34.5439	35.5784	36.5785	0
204	15	10	1	5	532.7952	32	1	4000	2327623.0220	164.6741	36.5962	40.6173	41.6351	42.6352	0
204	15	11	1	5	418.6360	32	1	4000	2327623.0220	164.6741	42.6529	46.6740	47.6918	48.6919	0
204	15	12	1	5	401.6041	35	1	4000	2327623.0220	164.6741	48.7262	52.7473	53.7651	54.7653	0
204	15	13	1	5	441.5462	32	1	4000	2327623.0220	164.6741	54.7828	58.8040	59.8218	60.8219	0
204	15	14	1	5	519.1612	32	1	4000	2327623.0220	164.6741	60.8396	64.8607	65.8952	66.8953	0
204	15	15	1	5	471.2298	35	1	4000	2327623.0220	164.6741	66.9130	70.9341	71.9519	72.9520	0
204	15	16	1	5	366.9143	35	1	4000	2327623.0220	164.6741	72.9697	76.9908	78.0086	79.0087	0
204	15	17	1	5	501.1897	35	1	4000	2327623.0220	164.6741	79.0430	83.0642	84.0818	85.0820	0
204	15	18	1	5	500.2070	32	1	4000	2327623.0220	164.6741	85.0996	89.1208	90.1386	91.1387	0
204	15	19	1	5	555.6675	32	1	4000	2327623.0220	164.6741	91.1564	95.1775	96.2120	97.2121	0
204	15	20	1	5	419.2902	32	1	4000	2327623.0220	164.6741	97.2298	101.2509	102.2686	103.2688	0
204	15	21	1	5	385.2436	32	1	4000	2327623.0220	164.6741	103.2864	107.3075	108.3254	109.3255	0
204	15	22	1	5	487.8869	32	1	4000	2327623.0220	164.6741	109.3598	113.3809	114.3987	115.3989	0
204	15	23	1	5	496.0111	35	1	4000	2327623.0220	164.6741	115.4165	119.4376	120.4554	121.4556	0
204	15	24	1	5	478.8214	32	1	4000	2327623.0220	164.6741	121.4731	125.4943	126.5288	127.5289	0
204	15	25	1	5	421.9998	32	1	4000	2327623.0220	164.6741	127.5465	131.5677	132.5854	133.5856	0
204	15	26	1	5	428.8798	32	1	4000	2327623.0220	164.6741	133.6032	137.6243	138.6421	139.6423	0
204	15	27	1	5	435.6769	32	1	4000	2327623.0220	164.6741	139.6766	143.6977	144.7155	145.7156	0
204	15	28	1	5	418.8413	32	1	4000	2327623.0220	164.6741	145.7333	149.7544	150.7722	151.7723	0
204	15	29	1	5	370.2261	32	1	4000	2327623.0220	164.6741	151.7900	155.8110	156.8455	157.8457	0
204	15	30	1	5	449.5254	32	1	4000	2327623.0220	164.6741	157.8633	161.8844	162.9022	163.9024	0
SUBID	BLOCK	TRIAL	REP	RUNID	RT	RESP	ACC	RSIJIT	EV_START	EV_BLOCK	EV_TRIAL	EV_RETRIEVAL	EV_PROBE	EV_RESP	EV_BLEND
204	16	1	1	6	550.7734	35	1	1000	2328226.7166	 0.0042	 0.0110	 1.0284	 2.0461	 3.0488	0
204	16	2	1	6	531.6955	32	1	1000	2328226.7166	 0.0042	 3.0802	 4.0979	 5.1157	 6.1159	0
204	16	3	1	6	422.9164	32	1	1000	2328226.7166	 0.0042	 6.1335	 7.1513	 8.1691	 9.1693	0
204	16	4	1	6	416.9226	32	1	1000	2328226.7166	 0.0042	 9.1869	10.2047	11.2225	12.2226	0
204	16	5	1	6	418.6058	32	1	1000	2328226.7166	 0.0042	12.2570	13.2914	14.3092	15.3093	0
204	16	6	1	6	396.4712	32	1	1000	2328226.7166	 0.0042	15.3270	16.3448	17.3626	18.3627	0
204	16	7	1	6	564.3401	32	1	4000	2328226.7166	 0.0042	18.3804	22.4015	23.4193	24.4194	0
204	16	8	1	6	459.1299	32	1	4000	2328226.7166	 0.0042	24.4371	28.4582	29.4759	30.4761	0
204	16	9	1	6	499.0867	35	1	4000	2328226.7166	 0.0042	30.4937	34.5148	35.5326	36.5328	0
204	16	10	1	6	633.5007	35	1	4000	2328226.7166	 0.0042	36.5504	40.5715	41.5893	42.5895	0
204	16	11	1	6	657.0045	35	1	4000	2328226.7166	 0.0042	42.6237	46.6449	47.6627	48.6629	0
204	16	12	1	6	431.6789	35	1	4000	2328226.7166	 0.0042	48.6805	52.7016	53.7194	54.7195	0
204	16	13	1	6	415.5710	35	1	4000	2328226.7166	 0.0042	54.7371	58.7582	59.7760	60.7762	0
204	16	14	1	6	526.6181	35	1	4000	2328226.7166	 0.0042	60.7938	64.8149	65.8327	66.8328	0
204	16	15	1	6	365.1776	35	1	4000	2328226.7166	 0.0042	66.8505	70.8716	71.8894	72.8896	0
204	16	16	1	6	451.7829	35	1	4000	2328226.7166	 0.0042	72.9239	76.9449	77.9628	78.9630	0
204	16	17	1	6	435.2993	35	1	4000	2328226.7166	 0.0042	78.9806	83.0016	84.0195	85.0196	0
204	16	18	1	6	395.6009	35	1	4000	2328226.7166	 0.0042	85.0372	89.0583	90.0761	91.0763	0
204	16	19	1	6	481.7378	35	1	4000	2328226.7166	 0.0042	91.0939	95.1150	96.1328	97.1330	0
204	16	20	1	6	417.6493	35	1	4000	2328226.7166	 0.0042	97.1505	101.1717	102.1895	103.1896	0
204	16	21	1	6	472.6706	32	1	4000	2328226.7166	 0.0042	103.2240	107.2451	108.2629	109.2631	0
204	16	22	1	6	447.7109	32	1	4000	2328226.7166	 0.0042	109.2807	113.3018	114.3194	115.3195	0
204	16	23	1	6	446.8152	35	1	4000	2328226.7166	 0.0042	115.3374	119.3584	120.3763	121.3764	0
204	16	24	1	6	431.0033	32	1	4000	2328226.7166	 0.0042	121.3940	125.4151	126.4329	127.4331	0
204	16	25	1	6	469.3635	32	1	4000	2328226.7166	 0.0042	127.4507	131.4718	132.4896	133.4897	0
204	16	26	1	6	484.9365	35	1	4000	2328226.7166	 0.0042	133.5241	137.5450	138.5628	139.5630	0
204	16	27	1	6	451.7240	32	1	4000	2328226.7166	 0.0042	139.5808	143.6019	144.6196	145.6197	0
204	16	28	1	6	523.2035	35	1	4000	2328226.7166	 0.0042	145.6374	149.6585	150.6763	151.6765	0
204	16	29	1	6	410.1696	32	0	4000	2328226.7166	 0.0042	151.6941	155.7152	156.7330	157.7331	0
204	16	30	1	6	456.7080	32	1	4000	2328226.7166	 0.0042	158.5350	162.5561	163.5906	164.5907	0
204	17	1	1	6	450.5662	35	1	1000	2328226.7166	164.5947	 0.0167	 1.0345	 2.0523	 3.0525	0
204	17	2	1	6	469.9348	32	1	1000	2328226.7166	164.5947	 3.0701	 4.0878	 5.1057	 6.1058	0
204	17	3	1	6	374.4088	35	1	1000	2328226.7166	164.5947	 6.1402	 7.1746	 8.1924	 9.1925	0
204	17	4	1	6	553.2941	35	1	1000	2328226.7166	164.5947	 9.2102	10.2280	11.2458	12.2460	0
204	17	5	1	6	427.8878	32	1	1000	2328226.7166	164.5947	12.2636	13.2814	14.2992	15.2993	0
204	17	6	1	6	454.2481	35	1	1000	2328226.7166	164.5947	15.3170	16.3348	17.3525	18.3527	0
204	17	7	1	6	428.9113	35	1	4000	2328226.7166	164.5947	18.3870	22.4081	23.4259	24.4260	0
204	17	8	1	6	403.8916	35	1	4000	2328226.7166	164.5947	24.4437	28.4648	29.4824	30.4826	0
204	17	9	1	6	435.2251	32	1	4000	2328226.7166	164.5947	30.5004	34.5215	35.5393	36.5394	0
204	17	10	1	6	419.0552	35	1	4000	2328226.7166	164.5947	36.5737	40.5948	41.6126	42.6128	0
204	17	11	1	6	457.5424	32	1	4000	2328226.7166	164.5947	42.6304	46.6515	47.6693	48.6695	0
204	17	12	1	6	393.6575	35	1	4000	2328226.7166	164.5947	48.7038	52.7080	53.7260	54.7261	0
204	17	13	1	6	473.1518	35	1	4000	2328226.7166	164.5947	54.7437	58.7649	59.7827	60.7829	0
204	17	14	1	6	519.3735	32	1	4000	2328226.7166	164.5947	60.8004	64.8216	65.8394	66.8395	0
204	17	15	1	6	398.5611	35	1	4000	2328226.7166	164.5947	66.8739	70.8949	71.9127	72.9129	0
204	17	16	1	6	438.2350	32	1	4000	2328226.7166	164.5947	72.9305	76.9516	77.9694	78.9695	0
204	17	17	1	6	397.4022	35	1	4000	2328226.7166	164.5947	79.0039	83.0082	84.0261	85.0262	0
204	17	18	1	6	556.5295	32	1	4000	2328226.7166	164.5947	85.0439	89.0650	90.0828	91.0829	0
204	17	19	1	6	450.9475	32	1	4000	2328226.7166	164.5947	91.1006	95.1217	96.1394	97.1396	0
204	17	20	1	6	410.1209	35	1	4000	2328226.7166	164.5947	97.1739	101.1950	102.2128	103.2130	0
204	17	21	1	6	545.9468	32	1	4000	2328226.7166	164.5947	103.2306	107.2517	108.2695	109.2696	0
204	17	22	1	6	424.4884	32	1	4000	2328226.7166	164.5947	109.3038	113.3086	114.3262	115.3264	0
204	17	23	1	6	447.8320	32	1	4000	2328226.7166	164.5947	115.3439	119.3651	120.3827	121.3828	0
204	17	24	1	6	695.3896	32	1	4000	2328226.7166	164.5947	121.4007	125.4218	126.4395	127.4396	0
204	17	25	1	6	477.8487	32	1	4000	2328226.7166	164.5947	127.4740	131.4951	132.5129	133.5131	0
204	17	26	1	6	453.4657	32	1	4000	2328226.7166	164.5947	133.5307	137.5518	138.5696	139.5697	0
204	17	27	1	6	452.9239	35	1	4000	2328226.7166	164.5947	139.6041	143.6084	144.6263	145.6264	0
204	17	28	1	6	500.3175	35	1	4000	2328226.7166	164.5947	145.6441	149.6651	150.6830	151.6831	0
204	17	29	1	6	635.9309	32	1	4000	2328226.7166	164.5947	151.7007	155.7218	156.7396	157.7398	0
204	17	30	1	6	490.3163	32	1	4000	2328226.7166	164.5947	157.7741	161.7952	162.8129	163.8130	0
204	18	1	1	6	494.0466	35	1	1000	2328226.7166	163.8165	 0.0294	 1.0470	 2.0648	 3.0649	0
204	18	2	1	6	471.5822	35	1	1000	2328226.7166	163.8165	 3.0993	 4.1337	 5.1515	 6.1517	0
204	18	3	1	6	393.1641	32	1	1000	2328226.7166	163.8165	 6.1693	 7.1871	 8.2049	 9.2051	0
204	18	4	1	6	403.4921	32	1	1000	2328226.7166	163.8165	 9.2227	10.2405	11.2583	12.2584	0
204	18	5	1	6	342.1187	35	1	1000	2328226.7166	163.8165	12.2760	13.2939	14.3116	15.3117	0
204	18	6	1	6	439.9486	35	1	1000	2328226.7166	163.8165	15.3461	16.3639	17.3817	18.3818	0
204	18	7	1	6	623.0141	32	1	4000	2328226.7166	163.8165	18.4161	22.4373	23.4551	24.4552	0
204	18	8	1	6	534.3312	32	1	4000	2328226.7166	163.8165	24.4729	28.4940	29.5118	30.5119	0
204	18	9	1	6	397.5339	32	1	4000	2328226.7166	163.8165	30.5462	34.5673	35.5851	36.5853	0
204	18	10	1	6	459.8649	32	1	4000	2328226.7166	163.8165	36.6029	40.6239	41.6418	42.6420	0
204	18	11	1	6	500.6380	32	1	4000	2328226.7166	163.8165	42.6596	46.6807	47.6985	48.6986	0
204	18	12	1	6	379.1855	32	1	4000	2328226.7166	163.8165	48.7330	52.7541	53.7719	54.7720	0
204	18	13	1	6	546.6491	32	1	4000	2328226.7166	163.8165	54.7896	58.8107	59.8285	60.8286	0
204	18	14	1	6	584.9600	32	1	4000	2328226.7166	163.8165	60.8630	64.8841	65.9019	66.9020	0
204	18	15	1	6	392.4425	35	1	4000	2328226.7166	163.8165	66.9197	70.9408	71.9586	72.9587	0
204	18	16	1	6	526.3697	35	1	4000	2328226.7166	163.8165	72.9763	76.9975	78.0153	79.0154	0
204	18	17	1	6	413.1722	35	1	4000	2328226.7166	163.8165	79.0497	83.0708	84.0886	85.0887	0
204	18	18	1	6	437.7027	32	1	4000	2328226.7166	163.8165	85.1064	89.1274	90.1453	91.1455	0
204	18	19	1	6	436.2355	32	1	4000	2328226.7166	163.8165	91.1798	95.2007	96.2187	97.2188	0
204	18	20	1	6	491.5559	35	1	4000	2328226.7166	163.8165	97.2365	101.2576	102.2752	103.2754	0
204	18	21	1	6	442.6298	32	1	4000	2328226.7166	163.8165	103.2931	107.3142	108.3320	109.3322	0
204	18	22	1	6	520.9894	35	1	4000	2328226.7166	163.8165	109.3665	113.3876	114.4054	115.4056	0
204	18	23	1	6	456.1350	35	1	4000	2328226.7166	163.8165	115.4232	119.4443	120.4621	121.4622	0
204	18	24	1	6	367.1322	35	1	4000	2328226.7166	163.8165	121.4966	125.5008	126.5187	127.5189	0
204	18	25	1	6	447.5332	35	1	4000	2328226.7166	163.8165	127.5364	131.5577	132.5755	133.5756	0
204	18	26	1	6	493.7766	32	1	4000	2328226.7166	163.8165	133.5932	137.6143	138.6321	139.6322	0
204	18	27	1	6	388.6976	35	1	4000	2328226.7166	163.8165	139.6666	143.6877	144.7055	145.7057	0
204	18	28	1	6	404.1201	35	1	4000	2328226.7166	163.8165	145.7233	149.7444	150.7622	151.7623	0
204	18	29	1	6	507.1166	32	1	4000	2328226.7166	163.8165	151.7967	155.8178	156.8356	157.8357	0
204	18	30	1	6	394.2828	35	1	4000	2328226.7166	163.8165	157.8534	161.8744	162.8922	163.8924	0
SUBID	BLOCK	TRIAL	REP	RUNID	RT	RESP	ACC	RSIJIT	EV_START	EV_BLOCK	EV_TRIAL	EV_RETRIEVAL	EV_PROBE	EV_RESP	EV_BLEND
204	19	1	1	7	542.2916	32	1	1000	2328834.9024	 0.0037	 0.0193	 1.0364	 2.0541	 3.0568	0
204	19	2	1	7	443.6736	32	1	1000	2328834.9024	 0.0037	 3.0882	 4.1059	 5.1238	 6.1239	0
204	19	3	1	7	517.4656	32	1	1000	2328834.9024	 0.0037	 6.1416	 7.1593	 8.1771	 9.1773	0
204	19	4	1	7	414.4905	32	1	1000	2328834.9024	 0.0037	 9.2116	10.2461	11.2806	12.2807	0
204	19	5	1	7	441.0100	32	1	1000	2328834.9024	 0.0037	12.3150	13.3328	14.3505	15.3507	0
204	19	6	1	7	499.6372	35	1	1000	2328834.9024	 0.0037	15.3684	16.3861	17.4040	18.4042	0
204	19	7	1	7	609.9042	35	1	4000	2328834.9024	 0.0037	18.4218	22.4428	23.4607	24.4608	0
204	19	8	1	7	472.9125	35	1	4000	2328834.9024	 0.0037	24.4950	28.5163	29.5340	30.5342	0
204	19	9	1	7	448.6598	35	1	4000	2328834.9024	 0.0037	30.5518	34.5729	35.5907	36.5909	0
204	19	10	1	7	374.5526	35	1	4000	2328834.9024	 0.0037	36.6085	40.6296	41.6641	42.6642	0
204	19	11	1	7	525.1952	32	1	4000	2328834.9024	 0.0037	42.6986	46.7197	47.7375	48.7376	0
204	19	12	1	7	508.5206	32	1	4000	2328834.9024	 0.0037	48.7552	52.7762	53.7941	54.7942	0
204	19	13	1	7	411.2289	32	1	4000	2328834.9024	 0.0037	54.8286	58.8497	59.8675	60.8676	0
204	19	14	1	7	442.7243	35	1	4000	2328834.9024	 0.0037	60.8853	64.9064	65.9242	66.9243	0
204	19	15	1	7	545.1740	32	1	4000	2328834.9024	 0.0037	66.9420	70.9631	71.9975	72.9976	0
204	19	16	1	7	488.2768	32	1	4000	2328834.9024	 0.0037	73.0153	77.0364	78.0542	79.0544	0
204	19	17	1	7	431.4975	32	1	4000	2328834.9024	 0.0037	79.0720	83.0931	84.1109	85.1111	0
204	19	18	1	7	462.6029	32	1	4000	2328834.9024	 0.0037	85.1453	89.1665	90.1843	91.1844	0
204	19	19	1	7	429.7376	32	1	4000	2328834.9024	 0.0037	91.2021	95.2232	96.2409	97.2410	0
204	19	20	1	7	357.1377	35	1	4000	2328834.9024	 0.0037	97.2587	101.2798	102.3143	103.3145	0
204	19	21	1	7	396.3274	35	1	4000	2328834.9024	 0.0037	103.3321	107.3531	108.3710	109.3712	0
204	19	22	1	7	466.8056	32	1	4000	2328834.9024	 0.0037	109.3887	113.4098	114.4277	115.4278	0
204	19	23	1	7	529.6728	32	1	4000	2328834.9024	 0.0037	115.4622	119.4833	120.5011	121.5012	0
204	19	24	1	7	457.1331	32	1	4000	2328834.9024	 0.0037	121.5188	125.5400	126.5577	127.5579	0
204	19	25	1	7	631.9299	32	1	4000	2328834.9024	 0.0037	127.5755	131.5966	132.6311	133.6312	0
204	19	26	1	7	415.7851	35	1	4000	2328834.9024	 0.0037	133.6489	137.6700	138.6878	139.6879	0
204	19	27	1	7	502.4800	35	1	4000	2328834.9024	 0.0037	139.7056	143.7267	144.7445	145.7446	0
204	19	28	1	7	813.0453	35	1	4000	2328834.9024	 0.0037	145.7789	149.8000	150.8178	151.8180	0
204	19	29	1	7	491.9517	32	1	4000	2328834.9024	 0.0037	151.8356	155.8567	156.8745	157.8746	0
204	19	30	1	7	458.4161	35	1	4000	2328834.9024	 0.0037	157.8923	161.9134	162.9479	163.9480	0
204	20	1	1	7	486.7224	32	1	1000	2328834.9024	163.9519	 0.0215	 1.0392	 2.0570	 3.0572	0
204	20	2	1	7	456.5141	32	1	1000	2328834.9024	163.9519	 3.0748	 4.0926	 5.1104	 6.1106	0
204	20	3	1	7	387.0420	35	1	1000	2328834.9024	163.9519	 6.1282	 7.1460	 8.1638	 9.1639	0
204	20	4	1	7	547.9868	35	1	1000	2328834.9024	163.9519	 9.1982	10.2327	11.2504	12.2506	0
204	20	5	1	7	446.6557	35	1	1000	2328834.9024	163.9519	12.2683	13.2860	14.3038	15.3040	0
204	20	6	1	7	401.3764	35	1	1000	2328834.9024	163.9519	15.3217	16.3394	17.3572	18.3574	0
204	20	7	1	7	376.6476	35	1	4000	2328834.9024	163.9519	18.3749	22.3962	23.4139	24.4141	0
204	20	8	1	7	479.7430	32	1	4000	2328834.9024	163.9519	24.4483	28.4695	29.4873	30.4875	0
204	20	9	1	7	510.7872	32	1	4000	2328834.9024	163.9519	30.5051	34.5262	35.5440	36.5441	0
204	20	10	1	7	405.9018	35	1	4000	2328834.9024	163.9519	36.5785	40.5996	41.6173	42.6175	0
204	20	11	1	7	485.3418	32	1	4000	2328834.9024	163.9519	42.6350	46.6562	47.6740	48.6742	0
204	20	12	1	7	381.0773	35	1	4000	2328834.9024	163.9519	48.6918	52.7128	53.7307	54.7308	0
204	20	13	1	7	475.9213	35	1	4000	2328834.9024	163.9519	54.7652	58.7862	59.8041	60.8042	0
204	20	14	1	7	410.9762	35	1	4000	2328834.9024	163.9519	60.8219	64.8430	65.8608	66.8609	0
204	20	15	1	7	457.2383	35	1	4000	2328834.9024	163.9519	66.8784	70.8996	71.9175	72.9176	0
204	20	16	1	7	768.8104	32	0	4000	2328834.9024	163.9519	72.9352	76.9563	77.9741	78.9742	0
204	20	17	1	7	374.9827	35	0	4000	2328834.9024	163.9519	79.7761	83.7972	84.8317	85.8318	0
204	20	18	1	7	575.3349	32	1	4000	2328834.9024	163.9519	86.6336	90.6548	91.6726	92.6727	0
204	20	19	1	7	438.8029	35	1	4000	2328834.9024	163.9519	92.6904	96.7116	97.7292	98.7293	0
204	20	20	1	7	380.5073	35	1	4000	2328834.9024	163.9519	98.7637	102.7848	103.8026	104.8028	0
204	20	21	1	7	395.6754	35	1	4000	2328834.9024	163.9519	104.8204	108.8415	109.8593	110.8594	0
204	20	22	1	7	499.3470	32	1	4000	2328834.9024	163.9519	110.8770	114.8982	115.9327	116.9328	0
204	20	23	1	7	401.5453	35	1	4000	2328834.9024	163.9519	116.9505	120.9716	121.9893	122.9895	0
204	20	24	1	7	376.9891	35	1	4000	2328834.9024	163.9519	123.0071	127.0282	128.0460	129.0462	0
204	20	25	1	7	439.8457	35	1	4000	2328834.9024	163.9519	129.0804	133.1016	134.1194	135.1195	0
204	20	26	1	7	806.7440	32	1	4000	2328834.9024	163.9519	135.1372	139.1583	140.1761	141.1762	0
204	20	27	1	7	364.9958	35	1	4000	2328834.9024	163.9519	141.1939	145.2150	146.2494	147.2496	0
204	20	28	1	7	572.3502	32	1	4000	2328834.9024	163.9519	147.2673	151.2883	152.3061	153.3063	0
204	20	29	1	7	396.4509	35	1	4000	2328834.9024	163.9519	153.3239	157.3450	158.3628	159.3630	0
204	20	30	1	7	395.5075	35	1	4000	2328834.9024	163.9519	159.3973	163.4184	164.4362	165.4363	0
204	21	1	1	7	661.9241	32	1	1000	2328834.9024	165.4398	 0.0217	 1.0395	 2.0573	 3.0575	0
204	21	2	1	7	470.3514	35	1	1000	2328834.9024	165.4398	 3.0918	 4.1263	 5.1608	 6.1609	0
204	21	3	1	7	568.4469	32	1	1000	2328834.9024	165.4398	 6.1786	 7.1963	 8.2141	 9.2142	0
204	21	4	1	7	451.4135	32	1	1000	2328834.9024	165.4398	 9.2318	10.2497	11.2675	12.2676	0
204	21	5	1	7	470.0935	32	1	1000	2328834.9024	165.4398	12.2853	13.3030	14.3208	15.3210	0
204	21	6	1	7	441.0223	35	1	1000	2328834.9024	165.4398	15.3386	16.3564	17.3742	18.3743	0
204	21	7	1	7	382.2242	32	1	4000	2328834.9024	165.4398	18.4087	22.4298	23.4476	24.4477	0
204	21	8	1	7	470.8837	32	1	4000	2328834.9024	165.4398	24.4654	28.4865	29.5042	30.5044	0
204	21	9	1	7	524.3449	35	1	4000	2328834.9024	165.4398	30.5220	34.5431	35.5776	36.5777	0
204	21	10	1	7	572.4063	32	1	4000	2328834.9024	165.4398	36.5954	40.6165	41.6343	42.6344	0
204	21	11	1	7	771.6248	32	1	4000	2328834.9024	165.4398	42.6521	46.6732	47.6910	48.6911	0
204	21	12	1	7	386.8382	35	1	4000	2328834.9024	165.4398	48.7255	52.7466	53.7644	54.7645	0
204	21	13	1	7	528.7915	35	1	4000	2328834.9024	165.4398	54.7821	58.8032	59.8210	60.8212	0
204	21	14	1	7	456.8522	35	1	4000	2328834.9024	165.4398	60.8388	64.8599	65.8944	66.8945	0
204	21	15	1	7	502.8854	32	1	4000	2328834.9024	165.4398	66.9122	70.9333	71.9511	72.9512	0
204	21	16	1	7	630.0997	35	1	4000	2328834.9024	165.4398	72.9687	76.9900	78.0078	79.0079	0
204	21	17	1	7	494.0210	35	1	4000	2328834.9024	165.4398	79.0422	83.0633	84.0811	85.0813	0
204	21	18	1	7	565.4305	32	1	4000	2328834.9024	165.4398	85.0989	89.1200	90.1378	91.1379	0
204	21	19	1	7	483.3129	35	1	4000	2328834.9024	165.4398	91.1556	95.1767	96.2112	97.2113	0
204	21	20	1	7	434.8490	32	1	4000	2328834.9024	165.4398	97.2290	101.2501	102.2679	103.2680	0
204	21	21	1	7	457.8810	32	1	4000	2328834.9024	165.4398	103.2857	107.3068	108.3246	109.3247	0
204	21	22	1	7	473.0570	35	1	4000	2328834.9024	165.4398	109.3590	113.3801	114.3979	115.3981	0
204	21	23	1	7	432.3249	35	1	4000	2328834.9024	165.4398	115.4157	119.4368	120.4545	121.4547	0
204	21	24	1	7	502.7778	32	1	4000	2328834.9024	165.4398	121.4724	125.4935	126.5280	127.5281	0
204	21	25	1	7	389.5142	35	1	4000	2328834.9024	165.4398	127.5458	131.5669	132.5846	133.5848	0
204	21	26	1	7	637.0284	32	1	4000	2328834.9024	165.4398	133.6024	137.6236	138.6413	139.6415	0
204	21	27	1	7	419.8097	32	1	4000	2328834.9024	165.4398	139.6758	143.6969	144.7147	145.7149	0
204	21	28	1	7	562.7280	32	1	4000	2328834.9024	165.4398	145.7324	149.7536	150.7714	151.7716	0
204	21	29	1	7	457.5224	35	1	4000	2328834.9024	165.4398	151.7892	155.8103	156.8447	157.8449	0
204	21	30	1	7	440.5676	32	1	4000	2328834.9024	165.4398	157.8625	161.8836	162.9014	163.9016	0
SUBID	BLOCK	TRIAL	REP	RUNID	RT	RESP	ACC	RSIJIT	EV_START	EV_BLOCK	EV_TRIAL	EV_RETRIEVAL	EV_PROBE	EV_RESP	EV_BLEND
204	22	1	1	8	469.5349	32	1	1000	2329428.4696	 0.0038	 0.0288	 1.0626	 2.0802	 3.0828	0
204	22	2	1	8	384.0483	35	1	1000	2329428.4696	 0.0038	 3.1144	 4.1322	 5.1666	 6.1668	0
204	22	3	1	8	401.6505	35	1	1000	2329428.4696	 0.0038	 6.2011	 7.2356	 8.2534	 9.2535	0
204	22	4	1	8	620.5676	32	1	1000	2329428.4696	 0.0038	 9.2712	10.2890	11.3067	12.3069	0
204	22	5	1	8	479.2642	35	1	1000	2329428.4696	 0.0038	12.3245	13.3423	14.3601	15.3603	0
204	22	6	1	8	425.1476	32	1	1000	2329428.4696	 0.0038	15.3779	16.3956	17.4135	18.4136	0
204	22	7	1	8	464.4459	35	1	4000	2329428.4696	 0.0038	18.4479	22.4689	23.4868	24.4870	0
204	22	8	1	8	471.1472	35	1	4000	2329428.4696	 0.0038	24.5046	28.5257	29.5435	30.5437	0
204	22	9	1	8	511.3263	32	1	4000	2329428.4696	 0.0038	30.5613	34.5824	35.6002	36.6004	0
204	22	10	1	8	413.4240	35	1	4000	2329428.4696	 0.0038	36.6347	40.6557	41.6736	42.6737	0
204	22	11	1	8	532.8857	35	1	4000	2329428.4696	 0.0038	42.6914	46.7123	47.7303	48.7304	0
204	22	12	1	8	501.1863	32	1	4000	2329428.4696	 0.0038	48.7647	52.7690	53.7869	54.7871	0
204	22	13	1	8	467.1341	32	1	4000	2329428.4696	 0.0038	54.8047	58.8258	59.8436	60.8438	0
204	22	14	1	8	395.1258	35	1	4000	2329428.4696	 0.0038	60.8614	64.8824	65.9003	66.9004	0
204	22	15	1	8	480.8817	32	1	4000	2329428.4696	 0.0038	66.9348	70.9559	71.9737	72.9738	0
204	22	16	1	8	433.7346	35	1	4000	2329428.4696	 0.0038	72.9915	77.0125	78.0304	79.0305	0
204	22	17	1	8	447.9957	32	1	4000	2329428.4696	 0.0038	79.0648	83.0692	84.0870	85.0872	0
204	22	18	1	8	888.2626	35	0	4000	2329428.4696	 0.0038	85.1047	89.1259	90.1437	91.1439	0
204	22	19	1	8	438.2421	35	1	4000	2329428.4696	 0.0038	91.9457	95.9668	97.0013	98.0014	0
204	22	20	1	8	420.8052	32	1	4000	2329428.4696	 0.0038	98.0358	102.0568	103.0746	104.0748	0
204	22	21	1	8	444.7520	35	1	4000	2329428.4696	 0.0038	104.0924	108.1135	109.1313	110.1315	0
204	22	22	1	8	530.2543	32	1	4000	2329428.4696	 0.0038	110.1658	114.1869	115.2047	116.2049	0
204	22	23	1	8	578.4175	32	1	4000	2329428.4696	 0.0038	116.2225	120.2435	121.2614	122.2615	0
204	22	24	1	8	505.1189	35	1	4000	2329428.4696	 0.0038	122.2792	126.3001	127.3347	128.3348	0
204	22	25	1	8	512.0020	35	1	4000	2329428.4696	 0.0038	128.3525	132.3736	133.3914	134.3916	0
204	22	26	1	8	630.7122	32	1	4000	2329428.4696	 0.0038	134.4092	138.4303	139.4481	140.4482	0
204	22	27	1	8	437.1818	32	1	4000	2329428.4696	 0.0038	140.4826	144.5037	145.5214	146.5216	0
204	22	28	1	8	429.5149	35	1	4000	2329428.4696	 0.0038	146.5393	150.5603	151.5782	152.5783	0
204	22	29	1	8	524.4656	32	1	4000	2329428.4696	 0.0038	152.5960	156.6170	157.6515	158.6517	0
204	22	30	1	8	371.8695	32	1	4000	2329428.4696	 0.0038	158.6693	162.6904	163.7082	164.7083	0
204	23	1	1	8	510.1695	32	1	1000	2329428.4696	164.7121	 0.0284	 1.0629	 2.0807	 3.0808	0
204	23	2	1	8	448.9520	35	1	1000	2329428.4696	164.7121	 3.1152	 4.1328	 5.1508	 6.1509	0
204	23	3	1	8	411.5139	32	1	1000	2329428.4696	164.7121	 6.1686	 7.1863	 8.2041	 9.2043	0
204	23	4	1	8	517.7457	32	1	1000	2329428.4696	164.7121	 9.2220	10.2397	11.2575	12.2577	0
204	23	5	1	8	407.6734	32	1	1000	2329428.4696	164.7121	12.2753	13.2930	14.3109	15.3110	0
204	23	6	1	8	577.1208	32	1	1000	2329428.4696	164.7121	15.3454	16.3798	17.3976	18.3977	0
204	23	7	1	8	552.4008	32	1	4000	2329428.4696	164.7121	18.4321	22.4532	23.4710	24.4711	0
204	23	8	1	8	631.2771	32	1	4000	2329428.4696	164.7121	24.4887	28.5099	29.5277	30.5278	0
204	23	9	1	8	501.3909	35	1	4000	2329428.4696	164.7121	30.5621	34.5832	35.6010	36.6012	0
204	23	10	1	8	557.6314	32	1	4000	2329428.4696	164.7121	36.6188	40.6399	41.6577	42.6579	0
204	23	11	1	8	412.4612	32	1	4000	2329428.4696	164.7121	42.6755	46.6965	47.7311	48.7313	0
204	23	12	1	8	914.3712	32	1	4000	2329428.4696	164.7121	48.7656	52.7867	53.8045	54.8046	0
204	23	13	1	8	442.8450	32	1	4000	2329428.4696	164.7121	54.8222	58.8433	59.8611	60.8613	0
204	23	14	1	8	624.8552	32	1	4000	2329428.4696	164.7121	60.8956	64.9167	65.9345	66.9346	0
204	23	15	1	8	407.1807	35	1	4000	2329428.4696	164.7121	66.9522	70.9734	71.9912	72.9913	0
204	23	16	1	8	694.9789	35	1	4000	2329428.4696	164.7121	73.0090	77.0301	78.0646	79.0647	0
204	23	17	1	8	518.3972	35	1	4000	2329428.4696	164.7121	79.0823	83.1034	84.1212	85.1214	0
204	23	18	1	8	629.8260	35	1	4000	2329428.4696	164.7121	85.1391	89.1601	90.1779	91.1781	0
204	23	19	1	8	524.4479	35	1	4000	2329428.4696	164.7121	91.2124	95.2335	96.2513	97.2514	0
204	23	20	1	8	443.2676	35	1	4000	2329428.4696	164.7121	97.2691	101.2902	102.3080	103.3081	0
204	23	21	1	8	377.7458	35	1	4000	2329428.4696	164.7121	103.3257	107.3468	108.3813	109.3814	0
204	23	22	1	8	489.9183	32	1	4000	2329428.4696	164.7121	109.3991	113.4202	114.4380	115.4381	0
204	23	23	1	8	465.0551	32	1	4000	2329428.4696	164.7121	115.4558	119.4769	120.4947	121.4948	0
204	23	24	1	8	471.3939	32	1	4000	2329428.4696	164.7121	121.5291	125.5503	126.5681	127.5682	0
204	23	25	1	8	495.1323	32	1	4000	2329428.4696	164.7121	127.5858	131.6069	132.6247	133.6248	0
204	23	26	1	8	396.9206	35	1	4000	2329428.4696	164.7121	133.6425	137.6636	138.6980	139.6981	0
204	23	27	1	8	468.5201	32	1	4000	2329428.4696	164.7121	139.7159	143.7370	144.7548	145.7549	0
204	23	28	1	8	524.5051	35	1	4000	2329428.4696	164.7121	145.7726	149.7937	150.8115	151.8116	0
204	23	29	1	8	506.5901	32	1	4000	2329428.4696	164.7121	151.8459	155.8670	156.8848	157.8850	0
204	23	30	1	8	538.4927	32	1	4000	2329428.4696	164.7121	157.9027	161.9237	162.9415	163.9416	0
204	24	1	1	8	418.5641	32	1	1000	2329428.4696	163.9450	 0.0080	 1.0260	 2.0437	 3.0439	0
204	24	2	1	8	548.6963	32	1	1000	2329428.4696	163.9450	 3.0616	 4.0793	 5.0971	 6.0973	0
204	24	3	1	8	504.3668	35	1	1000	2329428.4696	163.9450	 6.1149	 7.1327	 8.1504	 9.1506	0
204	24	4	1	8	386.4463	32	1	1000	2329428.4696	163.9450	 9.1683	10.1860	11.2039	12.2040	0
204	24	5	1	8	434.9466	32	1	1000	2329428.4696	163.9450	12.2384	13.2728	14.3073	15.3074	0
204	24	6	1	8	478.2789	32	1	1000	2329428.4696	163.9450	15.3251	16.3429	17.3607	18.3608	0
204	24	7	1	8	541.1001	35	1	4000	2329428.4696	163.9450	18.3784	22.3995	23.4173	24.4175	0
204	24	8	1	8	451.8856	32	1	4000	2329428.4696	163.9450	24.4351	28.4562	29.4907	30.4908	0
204	24	9	1	8	491.4545	32	1	4000	2329428.4696	163.9450	30.5085	34.5295	35.5474	36.5475	0
204	24	10	1	8	594.9806	32	1	4000	2329428.4696	163.9450	36.5652	40.5863	41.6041	42.6042	0
204	24	11	1	8	425.6501	32	1	4000	2329428.4696	163.9450	42.6386	46.6597	47.6774	48.6776	0
204	24	12	1	8	416.4741	32	1	4000	2329428.4696	163.9450	48.6952	52.7163	53.7341	54.7343	0
204	24	13	1	8	391.7192	35	1	4000	2329428.4696	163.9450	54.7519	58.7730	59.8075	60.8076	0
204	24	14	1	8	438.3029	32	1	4000	2329428.4696	163.9450	60.8253	64.8464	65.8642	66.8643	0
204	24	15	1	8	406.3285	32	1	4000	2329428.4696	163.9450	66.8818	70.9031	71.9209	72.9210	0
204	24	16	1	8	412.4506	32	1	4000	2329428.4696	163.9450	72.9553	76.9764	77.9942	78.9943	0
204	24	17	1	8	450.9769	35	1	4000	2329428.4696	163.9450	79.0120	83.0331	84.0507	85.0509	0
204	24	18	1	8	514.7295	35	1	4000	2329428.4696	163.9450	85.0687	89.0898	90.1243	91.1244	0
204	24	19	1	8	449.2357	35	1	4000	2329428.4696	163.9450	91.1421	95.1632	96.1809	97.1811	0
204	24	20	1	8	552.1427	35	1	4000	2329428.4696	163.9450	97.1987	101.2199	102.2376	103.2378	0
204	24	21	1	8	519.2742	32	1	4000	2329428.4696	163.9450	103.2721	107.2932	108.3109	109.3110	0
204	24	22	1	8	583.3998	32	1	4000	2329428.4696	163.9450	109.3288	113.3499	114.3677	115.3679	0
204	24	23	1	8	541.7364	35	1	4000	2329428.4696	163.9450	115.3855	119.4066	120.4411	121.4412	0
204	24	24	1	8	460.5978	32	1	4000	2329428.4696	163.9450	121.4588	125.4799	126.4977	127.4978	0
204	24	25	1	8	467.4962	35	1	4000	2329428.4696	163.9450	127.5155	131.5366	132.5544	133.5546	0
204	24	26	1	8	538.0105	35	1	4000	2329428.4696	163.9450	133.5889	137.6100	138.6278	139.6279	0
204	24	27	1	8	473.6601	32	1	4000	2329428.4696	163.9450	139.6456	143.6667	144.6845	145.6846	0
204	24	28	1	8	432.7205	32	1	4000	2329428.4696	163.9450	145.7021	149.7234	150.7578	151.7580	0
204	24	29	1	8	503.3058	35	0	4000	2329428.4696	163.9450	151.7756	155.7967	156.8145	157.8146	0
204	24	30	1	8	478.9880	32	1	4000	2329428.4696	163.9450	158.5998	162.6209	163.6554	164.6555	0
