SUBID	BLOCK	TRIAL	REP	RUNID	RT	RESP	ACC	RSIJIT	EV_START	EV_BLOCK	EV_TRIAL	EV_RETRIEVAL	EV_PROBE	EV_RESP	EV_BLEND
301	1	1	1	1	462.5330	32	1	1000	257372.5809	 0.0023	 0.0192	 1.0395	 2.0560	 3.0571	0
301	1	2	1	1	456.5115	32	1	1000	257372.5809	 0.0023	 3.0726	 4.1020	 5.1185	 6.1192	0
301	1	3	1	1	530.6437	32	1	1000	257372.5809	 0.0023	 6.1388	 7.1555	 8.1720	 9.1726	0
301	1	4	1	1	460.9836	32	1	1000	257372.5809	 0.0023	 9.1886	10.2179	11.2344	12.2349	0
301	1	5	1	1	397.5986	35	0	1000	257372.5809	 0.0023	12.2552	13.2718	14.2883	15.2930	0
301	1	6	1	1	508.3020	32	1	1000	257372.5809	 0.0023	16.3211	17.3504	18.3709	19.3712	0
301	1	7	1	1	478.3349	32	1	4000	257372.5809	 0.0023	19.3875	23.4162	24.4328	25.4330	0
301	1	8	1	1	373.1744	35	0	4000	257372.5809	 0.0023	25.4494	29.4656	30.4821	31.4824	0
301	1	9	1	1	454.6863	35	1	4000	257372.5809	 0.0023	32.5194	36.5357	37.5522	38.5524	0
301	1	10	1	1	445.4375	35	1	4000	257372.5809	 0.0023	38.5688	42.5850	43.6017	44.6019	0
301	1	11	1	1	403.9138	35	1	4000	257372.5809	 0.0023	44.6181	48.6345	49.6510	50.6512	0
301	1	12	1	1	451.0999	32	1	4000	257372.5809	 0.0023	50.6675	54.6838	55.7004	56.7006	0
301	1	13	1	1	441.9863	35	1	4000	257372.5809	 0.0023	56.7169	60.7331	61.7497	62.7499	0
301	1	14	1	1	431.5790	32	1	4000	257372.5809	 0.0023	62.7662	66.7825	67.7992	68.7994	0
301	1	15	1	1	422.3786	32	1	4000	257372.5809	 0.0023	68.8155	72.8319	73.8484	74.8486	0
301	1	16	1	1	405.7525	32	1	4000	257372.5809	 0.0023	74.8650	78.8813	79.8978	80.8980	0
301	1	17	1	1	419.4924	32	1	4000	257372.5809	 0.0023	80.9144	84.9306	85.9472	86.9474	0
301	1	18	1	1	394.2482	35	1	4000	257372.5809	 0.0023	86.9637	90.9800	91.9965	92.9967	0
301	1	19	1	1	424.8626	32	1	4000	257372.5809	 0.0023	93.0131	97.0293	98.0459	99.0461	0
301	1	20	1	1	399.7054	32	1	4000	257372.5809	 0.0023	99.0624	103.0787	104.0953	105.0955	0
301	1	21	1	1	403.2467	32	1	4000	257372.5809	 0.0023	105.1235	109.1398	110.1563	111.1565	0
301	1	22	1	1	369.4497	32	1	4000	257372.5809	 0.0023	111.1730	115.1890	116.2056	117.2058	0
301	1	23	1	1	384.3985	32	1	4000	257372.5809	 0.0023	117.2222	121.2384	122.2550	123.2552	0
301	1	24	1	1	399.2343	35	1	4000	257372.5809	 0.0023	123.2714	127.2876	128.3042	129.3044	0
301	1	25	1	1	373.8997	35	1	4000	257372.5809	 0.0023	129.3208	133.3369	134.3535	135.3537	0
301	1	26	1	1	403.7970	35	1	4000	257372.5809	 0.0023	135.3701	139.3862	140.4028	141.4030	0
301	1	27	1	1	427.0733	32	1	4000	257372.5809	 0.0023	141.4194	145.4356	146.4522	147.4524	0
301	1	28	1	1	354.1321	35	1	4000	257372.5809	 0.0023	147.4687	151.4849	152.5014	153.5016	0
301	1	29	1	1	480.0719	32	1	4000	257372.5809	 0.0023	153.5180	157.5341	158.5507	159.5509	0
301	1	30	1	1	574.8183	32	1	4000	257372.5809	 0.0023	159.5674	163.5835	164.6000	165.6002	0
301	2	1	1	1	564.8372	32	1	1000	257372.5809	165.6017	 0.0168	 1.0333	 2.0498	 3.0500	0
301	2	2	1	1	723.2021	35	0	1000	257372.5809	165.6017	 3.0664	 4.0829	 5.0995	 6.0999	0
301	2	3	1	1	547.2640	32	1	1000	257372.5809	165.6017	 7.1383	 8.1549	 9.1714	10.1716	0
301	2	4	1	1	505.9743	32	1	1000	257372.5809	165.6017	10.1880	11.2046	12.2211	13.2213	0
301	2	5	1	1	389.6014	32	1	1000	257372.5809	165.6017	13.2377	14.2650	15.2816	16.2818	0
301	2	6	1	1	363.8240	35	1	1000	257372.5809	165.6017	16.2982	17.3148	18.3313	19.3315	0
301	2	7	1	1	370.1213	35	1	4000	257372.5809	165.6017	19.3478	23.3640	24.3807	25.3809	0
301	2	8	1	1	465.2625	32	1	4000	257372.5809	165.6017	25.3972	29.4133	30.4299	31.4301	0
301	2	9	1	1	384.1969	35	1	4000	257372.5809	165.6017	31.4464	35.4626	36.4791	37.4793	0
301	2	10	1	1	350.2084	35	1	4000	257372.5809	165.6017	37.4957	41.5118	42.5285	43.5287	0
301	2	11	1	1	460.4736	32	1	4000	257372.5809	165.6017	43.5450	47.5612	48.5778	49.5780	0
301	2	12	1	1	380.1231	35	1	4000	257372.5809	165.6017	49.5943	53.6105	54.6272	55.6273	0
301	2	13	1	1	393.8727	35	1	4000	257372.5809	165.6017	55.6436	59.6599	60.6764	61.6766	0
301	2	14	1	1	393.4507	35	1	4000	257372.5809	165.6017	61.6930	65.7091	66.7257	67.7258	0
301	2	15	1	1	408.1053	35	1	4000	257372.5809	165.6017	67.7423	71.7584	72.7750	73.7751	0
301	2	16	1	1	390.2319	35	1	4000	257372.5809	165.6017	73.7915	77.8078	78.8243	79.8245	0
301	2	17	1	1	421.2852	32	1	4000	257372.5809	165.6017	79.8409	83.8570	84.8736	85.8738	0
301	2	18	1	1	356.2925	35	1	4000	257372.5809	165.6017	85.8901	89.9064	90.9229	91.9231	0
301	2	19	1	1	346.4223	35	1	4000	257372.5809	165.6017	91.9394	95.9557	96.9722	97.9724	0
301	2	20	1	1	465.3925	32	1	4000	257372.5809	165.6017	97.9888	102.0049	103.0215	104.0217	0
301	2	21	1	1	464.1176	35	1	4000	257372.5809	165.6017	104.0381	108.0542	109.0708	110.0710	0
301	2	22	1	1	415.0067	32	1	4000	257372.5809	165.6017	110.0873	114.1035	115.1201	116.1203	0
301	2	23	1	1	373.7551	32	1	4000	257372.5809	165.6017	116.1367	120.1529	121.1694	122.1696	0
301	2	24	1	1	372.4055	35	1	4000	257372.5809	165.6017	122.1860	126.2022	127.2187	128.2189	0
301	2	25	1	1	490.7076	32	1	4000	257372.5809	165.6017	128.2351	132.2515	133.2681	134.2683	0
301	2	26	1	1	433.7106	35	1	4000	257372.5809	165.6017	134.2845	138.3008	139.3173	140.3175	0
301	2	27	1	1	408.3721	35	1	4000	257372.5809	165.6017	140.3339	144.3500	145.3666	146.3668	0
301	2	28	1	1	414.4097	35	1	4000	257372.5809	165.6017	146.3832	150.3994	151.4159	152.4161	0
301	2	29	1	1	389.4640	35	1	4000	257372.5809	165.6017	152.4325	156.4487	157.4653	158.4655	0
301	2	30	1	1	387.7895	35	1	4000	257372.5809	165.6017	158.4818	162.4980	163.5146	164.5148	0
301	3	1	1	1	411.9850	35	1	1000	257372.5809	164.5162	 0.0096	 1.0261	 2.0428	 3.0431	0
301	3	2	1	1	562.8408	35	1	1000	257372.5809	164.5162	 3.0594	 4.0759	 5.0925	 6.0927	0
301	3	3	1	1	439.2538	35	1	1000	257372.5809	164.5162	 6.1182	 7.1347	 8.1512	 9.1514	0
301	3	4	1	1	453.7882	32	1	1000	257372.5809	164.5162	 9.1678	10.1843	11.2008	12.2010	0
301	3	5	1	1	443.9564	32	1	1000	257372.5809	164.5162	12.2175	13.2340	14.2505	15.2506	0
301	3	6	1	1	370.0925	32	1	1000	257372.5809	164.5162	15.2670	16.2836	17.3001	18.3003	0
301	3	7	1	1	433.6323	35	1	4000	257372.5809	164.5162	18.3167	22.3329	23.3495	24.3496	0
301	3	8	1	1	399.9868	35	1	4000	257372.5809	164.5162	24.3660	28.3823	29.3989	30.3991	0
301	3	9	1	1	398.3959	35	1	4000	257372.5809	164.5162	30.4153	34.4315	35.4480	36.4482	0
301	3	10	1	1	396.9739	35	1	4000	257372.5809	164.5162	36.4646	40.4808	41.4974	42.4975	0
301	3	11	1	1	412.6440	35	1	4000	257372.5809	164.5162	42.5140	46.5301	47.5466	48.5468	0
301	3	12	1	1	362.6458	35	1	4000	257372.5809	164.5162	48.5632	52.5795	53.5960	54.5961	0
301	3	13	1	1	393.7532	32	1	4000	257372.5809	164.5162	54.6125	58.6287	59.6453	60.6455	0
301	3	14	1	1	399.6254	35	1	4000	257372.5809	164.5162	60.6619	64.6780	65.6946	66.6948	0
301	3	15	1	1	430.4091	35	1	4000	257372.5809	164.5162	66.7111	70.7274	71.7439	72.7441	0
301	3	16	1	1	413.8276	35	1	4000	257372.5809	164.5162	72.7604	76.7766	77.7932	78.7933	0
301	3	17	1	1	364.7275	35	1	4000	257372.5809	164.5162	78.8097	82.8259	83.8425	84.8426	0
301	3	18	1	1	379.1031	35	1	4000	257372.5809	164.5162	84.8589	88.8752	89.8917	90.8919	0
301	3	19	1	1	386.1914	32	1	4000	257372.5809	164.5162	90.9083	94.9245	95.9411	96.9412	0
301	3	20	1	1	448.7997	35	1	4000	257372.5809	164.5162	96.9576	100.9738	101.9904	102.9906	0
301	3	21	1	1	414.7087	32	1	4000	257372.5809	164.5162	103.0070	107.0231	108.0397	109.0399	0
301	3	22	1	1	421.6211	35	1	4000	257372.5809	164.5162	109.0563	113.0725	114.0890	115.0891	0
301	3	23	1	1	436.9415	32	1	4000	257372.5809	164.5162	115.1055	119.1217	120.1383	121.1385	0
301	3	24	1	1	403.0864	35	1	4000	257372.5809	164.5162	121.1549	125.1710	126.1876	127.1878	0
301	3	25	1	1	497.5630	32	1	4000	257372.5809	164.5162	127.2041	131.2203	132.2369	133.2371	0
301	3	26	1	1	384.9672	32	1	4000	257372.5809	164.5162	133.2534	137.2696	138.2862	139.2863	0
301	3	27	1	1	383.2598	35	1	4000	257372.5809	164.5162	139.3028	143.3189	144.3355	145.3357	0
301	3	28	1	1	374.1782	35	1	4000	257372.5809	164.5162	145.3520	149.3683	150.3848	151.3850	0
301	3	29	1	1	364.6451	35	1	4000	257372.5809	164.5162	151.4013	155.4176	156.4341	157.4343	0
301	3	30	1	1	371.0734	35	1	4000	257372.5809	164.5162	157.4507	161.4668	162.4834	163.4836	0
301	4	1	1	2	542.9438	32	1	1000	258002.3118	 0.0026	 0.0146	 1.0313	 2.0479	 3.0486	0
301	4	2	1	2	397.3074	32	1	1000	258002.3118	 0.0026	 3.0643	 4.0809	 5.0975	 6.0981	0
301	4	3	1	2	604.3768	35	1	1000	258002.3118	 0.0026	 6.1140	 7.1305	 8.1470	 9.1475	0
301	4	4	1	2	472.2258	32	1	1000	258002.3118	 0.0026	 9.1636	10.1907	11.2072	12.2077	0
301	4	5	1	2	399.5826	32	1	1000	258002.3118	 0.0026	12.2302	13.2468	14.2631	15.2668	0
301	4	6	1	2	422.8263	32	1	1000	258002.3118	 0.0026	15.2796	16.2960	17.3126	18.3129	0
301	4	7	1	2	397.4626	32	1	4000	258002.3118	 0.0026	18.3292	22.3453	23.3621	24.3622	0
301	4	8	1	2	371.8212	32	1	4000	258002.3118	 0.0026	24.3784	28.3947	29.4112	30.4114	0
301	4	9	1	2	355.2938	35	1	4000	258002.3118	 0.0026	30.4279	34.4439	35.4606	36.4608	0
301	4	10	1	2	369.5040	32	1	4000	258002.3118	 0.0026	36.4771	40.4933	41.5098	42.5100	0
301	4	11	1	2	376.1705	32	1	4000	258002.3118	 0.0026	42.5264	46.5425	47.5592	48.5594	0
301	4	12	1	2	367.4233	32	1	4000	258002.3118	 0.0026	48.5756	52.5919	53.6084	54.6086	0
301	4	13	1	2	381.6037	32	1	4000	258002.3118	 0.0026	54.6250	58.6412	59.6577	60.6579	0
301	4	14	1	2	372.3064	32	1	4000	258002.3118	 0.0026	60.6743	64.6905	65.7071	66.7072	0
301	4	15	1	2	418.6663	32	1	4000	258002.3118	 0.0026	66.7236	70.7399	71.7563	72.7565	0
301	4	16	1	2	385.1195	32	1	4000	258002.3118	 0.0026	72.7729	76.7890	77.8057	78.8059	0
301	4	17	1	2	376.5207	35	1	4000	258002.3118	 0.0026	78.8222	82.8384	83.8550	84.8552	0
301	4	18	1	2	431.5191	35	1	4000	258002.3118	 0.0026	84.8714	88.8877	89.9042	90.9044	0
301	4	19	1	2	454.0343	32	1	4000	258002.3118	 0.0026	90.9208	94.9370	95.9535	96.9537	0
301	4	20	1	2	396.8232	32	1	4000	258002.3118	 0.0026	96.9700	100.9863	102.0028	103.0030	0
301	4	21	1	2	411.4786	35	1	4000	258002.3118	 0.0026	103.0194	107.0355	108.0522	109.0524	0
301	4	22	1	2	418.1377	35	1	4000	258002.3118	 0.0026	109.0687	113.0849	114.1015	115.1017	0
301	4	23	1	2	408.8006	35	1	4000	258002.3118	 0.0026	115.1180	119.1342	120.1507	121.1509	0
301	4	24	1	2	406.9561	35	1	4000	258002.3118	 0.0026	121.1673	125.1835	126.2000	127.2002	0
301	4	25	1	2	462.3522	32	1	4000	258002.3118	 0.0026	127.2166	131.2328	132.2494	133.2495	0
301	4	26	1	2	364.6748	32	1	4000	258002.3118	 0.0026	133.2660	137.2821	138.2987	139.2988	0
301	4	27	1	2	467.1234	32	1	4000	258002.3118	 0.0026	139.3152	143.3314	144.3480	145.3482	0
301	4	28	1	2	417.6099	35	1	4000	258002.3118	 0.0026	145.3645	149.3807	150.3974	151.3975	0
301	4	29	1	2	369.4071	35	1	4000	258002.3118	 0.0026	151.4138	155.4300	156.4466	157.4468	0
301	4	30	1	2	431.2333	35	1	4000	258002.3118	 0.0026	157.4631	161.4793	162.4959	163.4961	0
301	5	1	1	2	564.5859	32	1	1000	258002.3118	163.4975	 0.0178	 1.0343	 2.0509	 3.0511	0
301	5	2	1	2	566.1607	32	1	1000	258002.3118	163.4975	 3.0718	 4.0884	 5.1049	 6.1051	0
301	5	3	1	2	556.3907	35	1	1000	258002.3118	163.4975	 6.1215	 7.1380	 8.1546	 9.1547	0
301	5	4	1	2	458.5905	35	1	1000	258002.3118	163.4975	 9.1711	10.1877	11.2042	12.2043	0
301	5	5	1	2	393.1476	35	1	1000	258002.3118	163.4975	12.2208	13.2373	14.2538	15.2540	0
301	5	6	1	2	440.0130	32	1	1000	258002.3118	163.4975	15.2704	16.2870	17.3036	18.3037	0
301	5	7	1	2	422.7829	32	1	4000	258002.3118	163.4975	18.3201	22.3363	23.3529	24.3531	0
301	5	8	1	2	364.5492	35	1	4000	258002.3118	163.4975	24.3694	28.3856	29.4021	30.4023	0
301	5	9	1	2	420.2872	35	1	4000	258002.3118	163.4975	30.4187	34.4349	35.4515	36.4516	0
301	5	10	1	2	410.7106	35	1	4000	258002.3118	163.4975	36.4680	40.4842	41.5007	42.5008	0
301	5	11	1	2	385.7714	35	1	4000	258002.3118	163.4975	42.5173	46.5335	47.5499	48.5501	0
301	5	12	1	2	407.9187	32	1	4000	258002.3118	163.4975	48.5667	52.5828	53.5994	54.5996	0
301	5	13	1	2	358.7943	35	1	4000	258002.3118	163.4975	54.6159	58.6321	59.6486	60.6488	0
301	5	14	1	2	397.6739	35	1	4000	258002.3118	163.4975	60.6652	64.6814	65.6979	66.6981	0
301	5	15	1	2	387.4920	32	0	4000	258002.3118	163.4975	66.7145	70.7307	71.7472	72.7475	0
301	5	16	1	2	369.8990	35	1	4000	258002.3118	163.4975	73.7803	77.7966	78.8131	79.8133	0
301	5	17	1	2	457.3569	32	1	4000	258002.3118	163.4975	79.8297	83.8459	84.8624	85.8626	0
301	5	18	1	2	511.9067	32	1	4000	258002.3118	163.4975	85.8790	89.8952	90.9116	91.9118	0
301	5	19	1	2	381.6883	35	1	4000	258002.3118	163.4975	91.9283	95.9444	96.9609	97.9611	0
301	5	20	1	2	452.4893	32	1	4000	258002.3118	163.4975	97.9775	101.9937	103.0102	104.0103	0
301	5	21	1	2	403.7590	35	1	4000	258002.3118	163.4975	104.0269	108.0432	109.0596	110.0598	0
301	5	22	1	2	450.7332	32	1	4000	258002.3118	163.4975	110.0762	114.0924	115.1089	116.1091	0
301	5	23	1	2	425.2493	35	1	4000	258002.3118	163.4975	116.1255	120.1417	121.1582	122.1584	0
301	5	24	1	2	400.1812	32	1	4000	258002.3118	163.4975	122.1748	126.1910	127.2075	128.2077	0
301	5	25	1	2	358.3816	35	1	4000	258002.3118	163.4975	128.2241	132.2403	133.2568	134.2570	0
301	5	26	1	2	573.0207	32	1	4000	258002.3118	163.4975	134.2734	138.2896	139.3061	140.3062	0
301	5	27	1	2	403.6514	35	1	4000	258002.3118	163.4975	140.3227	144.3389	145.3554	146.3555	0
301	5	28	1	2	354.4923	35	1	4000	258002.3118	163.4975	146.3720	150.3882	151.4046	152.4048	0
301	5	29	1	2	489.5116	32	1	4000	258002.3118	163.4975	152.4213	156.4375	157.4540	158.4542	0
301	5	30	1	2	432.3674	35	1	4000	258002.3118	163.4975	158.4706	162.4868	163.5032	164.5034	0
301	6	1	1	2	445.3391	35	1	1000	258002.3118	164.5048	 0.0178	 1.0341	 2.0509	 3.0511	0
301	6	2	1	2	451.2316	35	1	1000	258002.3118	164.5048	 3.0674	 4.0840	 5.1005	 6.1007	0
301	6	3	1	2	472.9296	32	1	1000	258002.3118	164.5048	 6.1170	 7.1336	 8.1502	 9.1503	0
301	6	4	1	2	471.9340	35	1	1000	258002.3118	164.5048	 9.1666	10.1833	11.1998	12.2000	0
301	6	5	1	2	437.5585	32	1	1000	258002.3118	164.5048	12.2163	13.2329	14.2494	15.2496	0
301	6	6	1	2	652.2011	32	1	1000	258002.3118	164.5048	15.2660	16.2826	17.2991	18.2993	0
301	6	7	1	2	411.5436	32	1	4000	258002.3118	164.5048	18.3156	22.3318	23.3485	24.3487	0
301	6	8	1	2	473.5618	32	1	4000	258002.3118	164.5048	24.3650	28.3812	29.3977	30.3979	0
301	6	9	1	2	352.2388	35	1	4000	258002.3118	164.5048	30.4143	34.4305	35.4470	36.4472	0
301	6	10	1	2	423.2067	35	1	4000	258002.3118	164.5048	36.4636	40.4797	41.4963	42.4965	0
301	6	11	1	2	398.0493	35	1	4000	258002.3118	164.5048	42.5129	46.5291	47.5456	48.5458	0
301	6	12	1	2	404.4520	32	1	4000	258002.3118	164.5048	48.5623	52.5784	53.5949	54.5951	0
301	6	13	1	2	403.8661	32	1	4000	258002.3118	164.5048	54.6115	58.6276	59.6442	60.6444	0
301	6	14	1	2	394.5116	35	1	4000	258002.3118	164.5048	60.6607	64.6770	65.6935	66.6937	0
301	6	15	1	2	392.8867	32	1	4000	258002.3118	164.5048	66.7101	70.7263	71.7428	72.7430	0
301	6	16	1	2	447.1618	32	1	4000	258002.3118	164.5048	72.7594	76.7755	77.7921	78.7923	0
301	6	17	1	2	406.0878	35	1	4000	258002.3118	164.5048	78.8087	82.8249	83.8414	84.8416	0
301	6	18	1	2	428.8535	32	1	4000	258002.3118	164.5048	84.8580	88.8741	89.8907	90.8909	0
301	6	19	1	2	387.5439	35	1	4000	258002.3118	164.5048	90.9073	94.9235	95.9400	96.9402	0
301	6	20	1	2	377.6950	35	1	4000	258002.3118	164.5048	96.9566	100.9728	101.9893	102.9895	0
301	6	21	1	2	425.2297	32	1	4000	258002.3118	164.5048	103.0059	107.0221	108.0386	109.0388	0
301	6	22	1	2	368.0041	35	1	4000	258002.3118	164.5048	109.0552	113.0714	114.0879	115.0881	0
301	6	23	1	2	494.4546	35	1	4000	258002.3118	164.5048	115.1045	119.1207	120.1374	121.1376	0
301	6	24	1	2	412.9423	35	1	4000	258002.3118	164.5048	121.1538	125.1700	126.1865	127.1866	0
301	6	25	1	2	387.9264	35	1	4000	258002.3118	164.5048	127.2031	131.2193	132.2358	133.2359	0
301	6	26	1	2	441.8271	35	1	4000	258002.3118	164.5048	133.2524	137.2686	138.2852	139.2854	0
301	6	27	1	2	521.5821	32	1	4000	258002.3118	164.5048	139.3017	143.3179	144.3344	145.3345	0
301	6	28	1	2	351.8530	35	1	4000	258002.3118	164.5048	145.3510	149.3672	150.3837	151.3839	0
301	6	29	1	2	430.9224	32	1	4000	258002.3118	164.5048	151.4003	155.4165	156.4331	157.4333	0
301	6	30	1	2	404.5961	32	1	4000	258002.3118	164.5048	157.4496	161.4657	162.4824	163.4826	0
301	7	1	1	3	593.5200	32	1	1000	258633.0234	 0.0022	 0.0039	 1.0204	 2.0371	 3.0379	0
301	7	2	1	3	432.8942	35	1	1000	258633.0234	 0.0022	 3.0536	 4.0701	 5.0866	 6.0869	0
301	7	3	1	3	405.9752	32	1	1000	258633.0234	 0.0022	 6.1033	 7.1198	 8.1365	 9.1369	0
301	7	4	1	3	388.2373	35	1	1000	258633.0234	 0.0022	 9.1529	10.1695	11.1860	12.1865	0
301	7	5	1	3	465.9693	32	1	1000	258633.0234	 0.0022	12.2030	13.2195	14.2360	15.2396	0
301	7	6	1	3	401.9031	32	1	1000	258633.0234	 0.0022	15.2524	16.2689	17.2854	18.2856	0
301	7	7	1	3	416.2914	35	1	4000	258633.0234	 0.0022	18.3020	22.3183	23.3349	24.3351	0
301	7	8	1	3	414.6692	32	1	4000	258633.0234	 0.0022	24.3514	28.3677	29.3843	30.3845	0
301	7	9	1	3	397.0651	35	1	4000	258633.0234	 0.0022	30.4008	34.4171	35.4336	36.4338	0
301	7	10	1	3	451.8311	32	1	4000	258633.0234	 0.0022	36.4502	40.4664	41.4830	42.4832	0
301	7	11	1	3	490.3626	35	1	4000	258633.0234	 0.0022	42.4995	46.5158	47.5324	48.5326	0
301	7	12	1	3	464.9768	35	1	4000	258633.0234	 0.0022	48.5489	52.5652	53.5817	54.5819	0
301	7	13	1	3	359.4315	35	1	4000	258633.0234	 0.0022	54.5983	58.6145	59.6311	60.6313	0
301	7	14	1	3	511.0776	32	1	4000	258633.0234	 0.0022	60.6476	64.6639	65.6805	66.6807	0
301	7	15	1	3	444.5713	32	1	4000	258633.0234	 0.0022	66.6970	70.7133	71.7299	72.7301	0
301	7	16	1	3	444.2645	32	1	4000	258633.0234	 0.0022	72.7464	76.7626	77.7792	78.7794	0
301	7	17	1	3	394.2665	35	1	4000	258633.0234	 0.0022	78.7957	82.8120	83.8286	84.8288	0
301	7	18	1	3	464.9096	32	1	4000	258633.0234	 0.0022	84.8451	88.8613	89.8779	90.8781	0
301	7	19	1	3	399.7484	35	1	4000	258633.0234	 0.0022	90.8945	94.9107	95.9273	96.9275	0
301	7	20	1	3	478.2439	32	1	4000	258633.0234	 0.0022	96.9439	100.9601	101.9766	102.9768	0
301	7	21	1	3	452.5362	32	1	4000	258633.0234	 0.0022	102.9933	107.0095	108.0260	109.0262	0
301	7	22	1	3	467.9124	32	1	4000	258633.0234	 0.0022	109.0426	113.0588	114.0753	115.0754	0
301	7	23	1	3	418.5026	35	1	4000	258633.0234	 0.0022	115.0920	119.1080	120.1248	121.1250	0
301	7	24	1	3	425.0141	32	1	4000	258633.0234	 0.0022	121.1413	125.1576	126.1741	127.1743	0
301	7	25	1	3	391.1345	35	1	4000	258633.0234	 0.0022	127.1907	131.2069	132.2235	133.2237	0
301	7	26	1	3	629.8133	32	1	4000	258633.0234	 0.0022	133.2400	137.2563	138.2728	139.2730	0
301	7	27	1	3	428.5079	32	1	4000	258633.0234	 0.0022	139.2894	143.3057	144.3222	145.3224	0
301	7	28	1	3	467.6684	32	1	4000	258633.0234	 0.0022	145.3388	149.3550	150.3716	151.3718	0
301	7	29	1	3	417.5646	35	1	4000	258633.0234	 0.0022	151.3881	155.4044	156.4209	157.4211	0
301	7	30	1	3	464.8351	32	1	4000	258633.0234	 0.0022	157.4375	161.4538	162.4703	163.4705	0
301	8	1	1	3	436.5310	35	1	1000	258633.0234	163.4719	 0.0096	 1.0262	 2.0428	 3.0430	0
301	8	2	1	3	476.6704	35	1	1000	258633.0234	163.4719	 3.0594	 4.0760	 5.1071	 6.1073	0
301	8	3	1	3	576.8440	32	1	1000	258633.0234	163.4719	 6.1257	 7.1423	 8.1588	 9.1590	0
301	8	4	1	3	447.4127	32	1	1000	258633.0234	163.4719	 9.1754	10.1920	11.2085	12.2087	0
301	8	5	1	3	421.3767	35	1	1000	258633.0234	163.4719	12.2251	13.2417	14.2582	15.2584	0
301	8	6	1	3	547.9411	35	1	1000	258633.0234	163.4719	15.2748	16.2913	17.3079	18.3081	0
301	8	7	1	3	425.3966	35	1	4000	258633.0234	163.4719	18.3244	22.3551	23.3739	24.3741	0
301	8	8	1	3	423.7700	35	1	4000	258633.0234	163.4719	24.3905	28.4211	29.4399	30.4401	0
301	8	9	1	3	524.9168	35	1	4000	258633.0234	163.4719	30.4565	34.4871	35.5060	36.5062	0
301	8	10	1	3	412.5664	35	1	4000	258633.0234	163.4719	36.5225	40.5389	41.5553	42.5555	0
301	8	11	1	3	538.2179	35	1	4000	258633.0234	163.4719	42.5719	46.6023	47.6214	48.6216	0
301	8	12	1	3	472.7782	35	1	4000	258633.0234	163.4719	48.6379	52.6541	53.6708	54.6709	0
301	8	13	1	3	439.5564	32	1	4000	258633.0234	163.4719	54.6873	58.7036	59.7201	60.7203	0
301	8	14	1	3	501.7668	32	1	4000	258633.0234	163.4719	60.7368	64.7529	65.7695	66.7697	0
301	8	15	1	3	644.8134	35	1	4000	258633.0234	163.4719	66.7860	70.8023	71.8188	72.8190	0
301	8	16	1	3	562.9516	32	1	4000	258633.0234	163.4719	72.8354	76.8516	77.8682	78.8684	0
301	8	17	1	3	396.1605	35	1	4000	258633.0234	163.4719	78.8848	82.9148	83.9314	84.9316	0
301	8	18	1	3	449.8454	35	1	4000	258633.0234	163.4719	84.9508	88.9808	89.9974	90.9976	0
301	8	19	1	3	429.8382	35	1	4000	258633.0234	163.4719	91.0168	95.0330	96.0497	97.0498	0
301	8	20	1	3	366.9620	35	1	4000	258633.0234	163.4719	97.0662	101.0960	102.1126	103.1128	0
301	8	21	1	3	473.6943	32	1	4000	258633.0234	163.4719	103.1490	107.1652	108.1817	109.1819	0
301	8	22	1	3	419.4676	35	1	4000	258633.0234	163.4719	109.1983	113.2280	114.2445	115.2447	0
301	8	23	1	3	526.7255	32	1	4000	258633.0234	163.4719	115.2643	119.2805	120.2972	121.2974	0
301	8	24	1	3	423.1964	32	1	4000	258633.0234	163.4719	121.3137	125.3432	126.3598	127.3600	0
301	8	25	1	3	446.0907	32	1	4000	258633.0234	163.4719	127.3797	131.4092	132.4258	133.4260	0
301	8	26	1	3	425.1110	35	1	4000	258633.0234	163.4719	133.4423	137.4620	138.4786	139.4788	0
301	8	27	1	3	402.0312	35	1	4000	258633.0234	163.4719	139.4951	143.5244	144.5410	145.5412	0
301	8	28	1	3	405.2762	35	1	4000	258633.0234	163.4719	145.5576	149.5774	150.5939	151.5941	0
301	8	29	1	3	420.5321	32	1	4000	258633.0234	163.4719	151.6105	155.6267	156.6433	157.6435	0
301	8	30	1	3	413.5950	32	1	4000	258633.0234	163.4719	157.6598	161.6891	162.7056	163.7058	0
301	9	1	1	3	605.5308	32	1	1000	258633.0234	163.7072	 0.0169	 1.0334	 2.0499	 3.0501	0
301	9	2	1	3	434.9842	35	1	1000	258633.0234	163.7072	 3.0704	 4.0870	 5.1163	 6.1165	0
301	9	3	1	3	496.5317	32	1	1000	258633.0234	163.7072	 6.1329	 7.1495	 8.1659	 9.1661	0
301	9	4	1	3	527.6856	32	1	1000	258633.0234	163.7072	 9.1826	10.1991	11.2156	12.2158	0
301	9	5	1	3	422.2454	32	1	1000	258633.0234	163.7072	12.2322	13.2487	14.2653	15.2655	0
301	9	6	1	3	459.7191	32	1	1000	258633.0234	163.7072	15.2818	16.2983	17.3149	18.3150	0
301	9	7	1	3	531.2292	32	1	4000	258633.0234	163.7072	18.3314	22.3476	23.3642	24.3644	0
301	9	8	1	3	393.4772	32	1	4000	258633.0234	163.7072	24.3808	28.3969	29.4136	30.4138	0
301	9	9	1	3	360.0398	35	1	4000	258633.0234	163.7072	30.4301	34.4463	35.4629	36.4631	0
301	9	10	1	3	542.7560	35	1	4000	258633.0234	163.7072	36.4794	40.4956	41.5121	42.5123	0
301	9	11	1	3	421.4200	35	1	4000	258633.0234	163.7072	42.5287	46.5449	47.5615	48.5617	0
301	9	12	1	3	436.2661	32	1	4000	258633.0234	163.7072	48.5780	52.5942	53.6107	54.6109	0
301	9	13	1	3	394.7258	32	1	4000	258633.0234	163.7072	54.6272	58.6434	59.6600	60.6602	0
301	9	14	1	3	417.6855	32	1	4000	258633.0234	163.7072	60.6766	64.6928	65.7093	66.7095	0
301	9	15	1	3	408.6475	35	1	4000	258633.0234	163.7072	66.7260	70.7421	71.7587	72.7588	0
301	9	16	1	3	390.5113	35	1	4000	258633.0234	163.7072	72.7752	76.7914	77.8079	78.8081	0
301	9	17	1	3	413.7951	35	1	4000	258633.0234	163.7072	78.8245	82.8408	83.8572	84.8574	0
301	9	18	1	3	404.4865	35	1	4000	258633.0234	163.7072	84.8738	88.8900	89.9065	90.9067	0
301	9	19	1	3	499.3194	32	1	4000	258633.0234	163.7072	90.9231	94.9394	95.9559	96.9561	0
301	9	20	1	3	489.4626	32	1	4000	258633.0234	163.7072	96.9725	100.9887	102.0051	103.0053	0
301	9	21	1	3	392.0014	35	1	4000	258633.0234	163.7072	103.0218	107.0379	108.0545	109.0547	0
301	9	22	1	3	463.5498	35	1	4000	258633.0234	163.7072	109.0710	113.0872	114.1037	115.1039	0
301	9	23	1	3	582.2765	32	1	4000	258633.0234	163.7072	115.1203	119.1364	120.1530	121.1533	0
301	9	24	1	3	428.4283	35	1	4000	258633.0234	163.7072	121.1696	125.1858	126.2023	127.2025	0
301	9	25	1	3	507.1188	35	1	4000	258633.0234	163.7072	127.2189	131.2351	132.2517	133.2519	0
301	9	26	1	3	417.6807	35	1	4000	258633.0234	163.7072	133.2682	137.2845	138.3010	139.3011	0
301	9	27	1	3	392.5783	35	1	4000	258633.0234	163.7072	139.3175	143.3338	144.3503	145.3504	0
301	9	28	1	3	415.0265	35	1	4000	258633.0234	163.7072	145.3669	149.3832	150.3996	151.3998	0
301	9	29	1	3	398.2791	35	1	4000	258633.0234	163.7072	151.4162	155.4323	156.4489	157.4491	0
301	9	30	1	3	396.9708	35	1	4000	258633.0234	163.7072	157.4656	161.4816	162.4983	163.4984	0
301	10	1	1	4	529.3332	32	1	1000	259528.0552	 0.0021	 0.0140	 1.0375	 2.0540	 3.0547	0
301	10	2	1	4	439.9445	35	1	1000	259528.0552	 0.0021	 3.0706	 4.0871	 5.1038	 6.1042	0
301	10	3	1	4	438.3756	32	1	1000	259528.0552	 0.0021	 6.1202	 7.1368	 8.1533	 9.1538	0
301	10	4	1	4	426.3493	32	1	1000	259528.0552	 0.0021	 9.1698	10.1960	11.2126	12.2131	0
301	10	5	1	4	416.3190	32	1	1000	259528.0552	 0.0021	12.2365	13.2530	14.2695	15.2744	0
301	10	6	1	4	584.3203	32	1	1000	259528.0552	 0.0021	15.2858	16.3024	17.3189	18.3191	0
301	10	7	1	4	446.6918	35	1	4000	259528.0552	 0.0021	18.3356	22.3518	23.3682	24.3684	0
301	10	8	1	4	389.4823	35	1	4000	259528.0552	 0.0021	24.3847	28.4009	29.4176	30.4178	0
301	10	9	1	4	388.9404	35	1	4000	259528.0552	 0.0021	30.4340	34.4502	35.4668	36.4670	0
301	10	10	1	4	387.5244	35	1	4000	259528.0552	 0.0021	36.4833	40.4995	41.5160	42.5162	0
301	10	11	1	4	385.9652	35	1	4000	259528.0552	 0.0021	42.5326	46.5489	47.5655	48.5657	0
301	10	12	1	4	416.9476	32	1	4000	259528.0552	 0.0021	48.5820	52.5982	53.6147	54.6149	0
301	10	13	1	4	359.3075	35	1	4000	259528.0552	 0.0021	54.6312	58.6475	59.6640	60.6642	0
301	10	14	1	4	550.4308	32	1	4000	259528.0552	 0.0021	60.6805	64.6968	65.7133	66.7135	0
301	10	15	1	4	508.5874	35	1	4000	259528.0552	 0.0021	66.7299	70.7461	71.7626	72.7628	0
301	10	16	1	4	451.0557	32	1	4000	259528.0552	 0.0021	72.7792	76.7954	77.8119	78.8121	0
301	10	17	1	4	410.2809	35	1	4000	259528.0552	 0.0021	78.8285	82.8447	83.8612	84.8614	0
301	10	18	1	4	400.3191	35	1	4000	259528.0552	 0.0021	84.8778	88.8940	89.9105	90.9107	0
301	10	19	1	4	399.6894	32	1	4000	259528.0552	 0.0021	90.9271	94.9432	95.9599	96.9601	0
301	10	20	1	4	398.4971	35	1	4000	259528.0552	 0.0021	96.9764	100.9926	102.0091	103.0093	0
301	10	21	1	4	469.3174	32	1	4000	259528.0552	 0.0021	103.0257	107.0420	108.0584	109.0587	0
301	10	22	1	4	411.3164	32	1	4000	259528.0552	 0.0021	109.0750	113.0912	114.1077	115.1079	0
301	10	23	1	4	450.8122	32	1	4000	259528.0552	 0.0021	115.1244	119.1405	120.1570	121.1573	0
301	10	24	1	4	409.5675	35	1	4000	259528.0552	 0.0021	121.1736	125.1898	126.2063	127.2065	0
301	10	25	1	4	431.4676	32	1	4000	259528.0552	 0.0021	127.2229	131.2392	132.2557	133.2558	0
301	10	26	1	4	446.5026	32	1	4000	259528.0552	 0.0021	133.2722	137.2884	138.3049	139.3050	0
301	10	27	1	4	429.1439	32	1	4000	259528.0552	 0.0021	139.3215	143.3377	144.3542	145.3544	0
301	10	28	1	4	460.4941	32	0	4000	259528.0552	 0.0021	145.3709	149.3870	150.4035	151.4037	0
301	10	29	1	4	418.3360	35	1	4000	259528.0552	 0.0021	152.4367	156.4529	157.4694	158.4696	0
301	10	30	1	4	408.7961	32	1	4000	259528.0552	 0.0021	158.4859	162.5021	163.5188	164.5190	0
301	11	1	1	4	460.1271	35	1	1000	259528.0552	164.5204	 0.0174	 1.0339	 2.0504	 3.0506	0
301	11	2	1	4	467.2241	32	1	1000	259528.0552	164.5204	 3.0670	 4.0835	 5.1001	 6.1003	0
301	11	3	1	4	536.8564	35	0	1000	259528.0552	164.5204	 6.1166	 7.1332	 8.1497	 9.1499	0
301	11	4	1	4	401.4512	35	1	1000	259528.0552	164.5204	10.1881	11.2046	12.2211	13.2213	0
301	11	5	1	4	423.8348	35	1	1000	259528.0552	164.5204	13.2376	14.2543	15.2708	16.2710	0
301	11	6	1	4	407.0606	35	1	1000	259528.0552	164.5204	16.2873	17.3039	18.3204	19.3206	0
301	11	7	1	4	404.8415	32	1	4000	259528.0552	164.5204	19.3371	23.3532	24.3697	25.3699	0
301	11	8	1	4	412.0235	35	1	4000	259528.0552	164.5204	25.3863	29.4025	30.4190	31.4192	0
301	11	9	1	4	498.5210	32	1	4000	259528.0552	164.5204	31.4356	35.4518	36.4684	37.4686	0
301	11	10	1	4	433.9432	32	1	4000	259528.0552	164.5204	37.4849	41.5011	42.5176	43.5178	0
301	11	11	1	4	415.8575	32	1	4000	259528.0552	164.5204	43.5342	47.5504	48.5670	49.5672	0
301	11	12	1	4	398.6833	35	1	4000	259528.0552	164.5204	49.5836	53.5997	54.6162	55.6164	0
301	11	13	1	4	437.7160	32	1	4000	259528.0552	164.5204	55.6328	59.6490	60.6656	61.6658	0
301	11	14	1	4	388.4172	35	1	4000	259528.0552	164.5204	61.6821	65.6983	66.7148	67.7150	0
301	11	15	1	4	435.1413	35	1	4000	259528.0552	164.5204	67.7314	71.7476	72.7642	73.7643	0
301	11	16	1	4	433.6251	35	1	4000	259528.0552	164.5204	73.7806	77.7969	78.8134	79.8136	0
301	11	17	1	4	368.1648	35	1	4000	259528.0552	164.5204	79.8300	83.8462	84.8627	85.8629	0
301	11	18	1	4	414.6260	32	1	4000	259528.0552	164.5204	85.8794	89.8955	90.9119	91.9120	0
301	11	19	1	4	413.9760	32	1	4000	259528.0552	164.5204	91.9286	95.9448	96.9614	97.9616	0
301	11	20	1	4	420.0267	35	1	4000	259528.0552	164.5204	97.9779	101.9941	103.0107	104.0109	0
301	11	21	1	4	403.2645	35	1	4000	259528.0552	164.5204	104.0272	108.0434	109.0600	110.0602	0
301	11	22	1	4	353.9000	35	1	4000	259528.0552	164.5204	110.0765	114.0927	115.1093	116.1095	0
301	11	23	1	4	392.8707	35	1	4000	259528.0552	164.5204	116.1258	120.1420	121.1586	122.1588	0
301	11	24	1	4	390.6115	32	1	4000	259528.0552	164.5204	122.1751	126.1914	127.2078	128.2080	0
301	11	25	1	4	430.0409	32	1	4000	259528.0552	164.5204	128.2244	132.2406	133.2572	134.2574	0
301	11	26	1	4	484.5827	32	1	4000	259528.0552	164.5204	134.2737	138.2899	139.3066	140.3068	0
301	11	27	1	4	403.3120	35	1	4000	259528.0552	164.5204	140.3230	144.3392	145.3558	146.3560	0
301	11	28	1	4	481.8276	32	1	4000	259528.0552	164.5204	146.3722	150.3885	151.4051	152.4052	0
301	11	29	1	4	416.5906	32	1	4000	259528.0552	164.5204	152.4216	156.4378	157.4544	158.4546	0
301	11	30	1	4	383.1270	32	1	4000	259528.0552	164.5204	158.4709	162.4871	163.5037	164.5039	0
301	12	1	1	4	449.6905	35	1	1000	259528.0552	164.5052	 0.0132	 1.0297	 2.0462	 3.0464	0
301	12	2	1	4	471.9384	35	1	1000	259528.0552	164.5052	 3.0628	 4.0794	 5.0959	 6.0961	0
301	12	3	1	4	558.2549	32	1	1000	259528.0552	164.5052	 6.1125	 7.1290	 8.1456	 9.1458	0
301	12	4	1	4	588.6836	32	1	1000	259528.0552	164.5052	 9.1621	10.1787	11.1952	12.1954	0
301	12	5	1	4	418.4953	32	1	1000	259528.0552	164.5052	12.2118	13.2283	14.2448	15.2450	0
301	12	6	1	4	409.3972	32	1	1000	259528.0552	164.5052	15.2614	16.2780	17.2945	18.2947	0
301	12	7	1	4	399.7842	35	1	4000	259528.0552	164.5052	18.3111	22.3272	23.3438	24.3440	0
301	12	8	1	4	390.7468	35	1	4000	259528.0552	164.5052	24.3603	28.3766	29.3931	30.3933	0
301	12	9	1	4	445.4459	32	1	4000	259528.0552	164.5052	30.4097	34.4259	35.4424	36.4426	0
301	12	10	1	4	451.9964	35	1	4000	259528.0552	164.5052	36.4590	40.4752	41.4917	42.4919	0
301	12	11	1	4	402.6417	35	1	4000	259528.0552	164.5052	42.5082	46.5245	47.5410	48.5412	0
301	12	12	1	4	384.7282	35	1	4000	259528.0552	164.5052	48.5576	52.5736	53.5903	54.5905	0
301	12	13	1	4	439.9594	32	1	4000	259528.0552	164.5052	54.6068	58.6231	59.6396	60.6398	0
301	12	14	1	4	390.9367	35	1	4000	259528.0552	164.5052	60.6562	64.6724	65.6889	66.6891	0
301	12	15	1	4	421.8044	35	1	4000	259528.0552	164.5052	66.7054	70.7217	71.7382	72.7384	0
301	12	16	1	4	404.3677	35	1	4000	259528.0552	164.5052	72.7547	76.7710	77.7876	78.7878	0
301	12	17	1	4	386.2349	35	1	4000	259528.0552	164.5052	78.8041	82.8202	83.8368	84.8370	0
301	12	18	1	4	417.6772	32	1	4000	259528.0552	164.5052	84.8534	88.8695	89.8861	90.8863	0
301	12	19	1	4	456.5091	32	1	4000	259528.0552	164.5052	90.9027	94.9188	95.9354	96.9356	0
301	12	20	1	4	422.7276	35	1	4000	259528.0552	164.5052	96.9520	100.9682	101.9847	102.9849	0
301	12	21	1	4	413.0822	35	1	4000	259528.0552	164.5052	103.0013	107.0174	108.0341	109.0343	0
301	12	22	1	4	468.6884	32	1	4000	259528.0552	164.5052	109.0506	113.0667	114.0834	115.0836	0
301	12	23	1	4	411.1255	32	1	4000	259528.0552	164.5052	115.1000	119.1161	120.1326	121.1328	0
301	12	24	1	4	369.8713	35	1	4000	259528.0552	164.5052	121.1492	125.1654	126.1820	127.1822	0
301	12	25	1	4	440.3740	32	1	4000	259528.0552	164.5052	127.1985	131.2147	132.2313	133.2315	0
301	12	26	1	4	463.5921	32	1	4000	259528.0552	164.5052	133.2478	137.2640	138.2805	139.2807	0
301	12	27	1	4	437.5606	32	1	4000	259528.0552	164.5052	139.2971	143.3133	144.3299	145.3302	0
301	12	28	1	4	404.3993	35	1	4000	259528.0552	164.5052	145.3464	149.3626	150.3791	151.3793	0
301	12	29	1	4	466.8065	32	1	4000	259528.0552	164.5052	151.3957	155.4119	156.4285	157.4286	0
301	12	30	1	4	474.1877	32	1	4000	259528.0552	164.5052	157.4451	161.4612	162.4778	163.4780	0
301	13	1	1	5	466.1131	32	1	1000	260227.5996	 0.0023	 0.0110	 1.0276	 2.0441	 3.0448	0
301	13	2	1	5	737.5580	32	0	1000	260227.5996	 0.0023	 3.0606	 4.0772	 5.0937	 6.0942	0
301	13	3	1	5	647.1188	35	1	1000	260227.5996	 0.0023	 7.1269	 8.1433	 9.1599	10.1604	0
301	13	4	1	5	581.1879	32	1	1000	260227.5996	 0.0023	10.1764	11.1931	12.2096	13.2101	0
301	13	5	1	5	473.5553	35	1	1000	260227.5996	 0.0023	13.2264	14.2430	15.2595	16.2640	0
301	13	6	1	5	410.5039	35	1	1000	260227.5996	 0.0023	16.2757	17.2923	18.3090	19.3093	0
301	13	7	1	5	464.1888	32	1	4000	260227.5996	 0.0023	19.3254	23.3417	24.3583	25.3585	0
301	13	8	1	5	391.5295	32	1	4000	260227.5996	 0.0023	25.3749	29.3912	30.4078	31.4080	0
301	13	9	1	5	381.9927	35	1	4000	260227.5996	 0.0023	31.4244	35.4406	36.4571	37.4573	0
301	13	10	1	5	412.7296	32	1	4000	260227.5996	 0.0023	37.4737	41.4900	42.5065	43.5067	0
301	13	11	1	5	411.4689	32	1	4000	260227.5996	 0.0023	43.5231	47.5393	48.5559	49.5562	0
301	13	12	1	5	393.9195	32	1	4000	260227.5996	 0.0023	49.5725	53.5887	54.6053	55.6055	0
301	13	13	1	5	432.3786	32	1	4000	260227.5996	 0.0023	55.6218	59.6381	60.6546	61.6549	0
301	13	14	1	5	407.6170	32	1	4000	260227.5996	 0.0023	61.6713	65.6874	66.7040	67.7042	0
301	13	15	1	5	421.8107	32	1	4000	260227.5996	 0.0023	67.7206	71.7368	72.7534	73.7536	0
301	13	16	1	5	436.6966	35	1	4000	260227.5996	 0.0023	73.7699	77.7862	78.8027	79.8028	0
301	13	17	1	5	419.0133	35	1	4000	260227.5996	 0.0023	79.8193	83.8356	84.8521	85.8524	0
301	13	18	1	5	409.2858	32	1	4000	260227.5996	 0.0023	85.8687	89.8848	90.9015	91.9017	0
301	13	19	1	5	439.7032	35	1	4000	260227.5996	 0.0023	91.9179	95.9343	96.9508	97.9511	0
301	13	20	1	5	407.2625	32	1	4000	260227.5996	 0.0023	97.9674	101.9836	103.0002	104.0004	0
301	13	21	1	5	397.0759	32	1	4000	260227.5996	 0.0023	104.0168	108.0330	109.0495	110.0497	0
301	13	22	1	5	475.5429	32	1	4000	260227.5996	 0.0023	110.0662	114.0824	115.0989	116.0992	0
301	13	23	1	5	707.0562	32	1	4000	260227.5996	 0.0023	116.1155	120.1318	121.1483	122.1485	0
301	13	24	1	5	408.9202	35	1	4000	260227.5996	 0.0023	122.1649	126.1810	127.1977	128.1979	0
301	13	25	1	5	408.4271	35	1	4000	260227.5996	 0.0023	128.2142	132.2305	133.2471	134.2473	0
301	13	26	1	5	422.3980	35	1	4000	260227.5996	 0.0023	134.2635	138.2798	139.2964	140.2966	0
301	13	27	1	5	477.7155	32	1	4000	260227.5996	 0.0023	140.3129	144.3292	145.3457	146.3460	0
301	13	28	1	5	428.2508	32	1	4000	260227.5996	 0.0023	146.3623	150.3785	151.3951	152.3953	0
301	13	29	1	5	466.2673	35	1	4000	260227.5996	 0.0023	152.4267	156.4446	157.4612	158.4614	0
301	13	30	1	5	440.7037	32	1	4000	260227.5996	 0.0023	158.4778	162.4940	163.5105	164.5107	0
301	14	1	1	5	682.8934	32	1	1000	260227.5996	164.5121	 0.0169	 1.0353	 2.0519	 3.0521	0
301	14	2	1	5	425.8633	32	1	1000	260227.5996	164.5121	 3.0684	 4.0849	 5.1015	 6.1017	0
301	14	3	1	5	424.1651	32	1	1000	260227.5996	164.5121	 6.1181	 7.1346	 8.1512	 9.1514	0
301	14	4	1	5	405.5257	32	1	1000	260227.5996	164.5121	 9.1677	10.1843	11.2009	12.2011	0
301	14	5	1	5	442.6343	32	1	1000	260227.5996	164.5121	12.2174	13.2653	14.2838	15.2840	0
301	14	6	1	5	417.9369	35	1	1000	260227.5996	164.5121	15.3004	16.3170	17.3334	18.3336	0
301	14	7	1	5	512.3669	32	1	4000	260227.5996	164.5121	18.3501	22.3663	23.3829	24.3831	0
301	14	8	1	5	398.8012	35	1	4000	260227.5996	164.5121	24.3994	28.4157	29.4323	30.4325	0
301	14	9	1	5	421.6253	35	1	4000	260227.5996	164.5121	30.4488	34.4651	35.4816	36.4818	0
301	14	10	1	5	420.0117	35	1	4000	260227.5996	164.5121	36.4982	40.5146	41.5310	42.5312	0
301	14	11	1	5	410.1809	35	1	4000	260227.5996	164.5121	42.5476	46.5639	47.5803	48.5805	0
301	14	12	1	5	433.1765	32	1	4000	260227.5996	164.5121	48.5969	52.6132	53.6297	54.6299	0
301	14	13	1	5	375.5605	35	1	4000	260227.5996	164.5121	54.6463	58.6626	59.6792	60.6794	0
301	14	14	1	5	398.5911	35	1	4000	260227.5996	164.5121	60.6957	64.7119	65.7285	66.7287	0
301	14	15	1	5	453.3654	32	1	4000	260227.5996	164.5121	66.7450	70.7613	71.7779	72.7781	0
301	14	16	1	5	411.7142	35	1	4000	260227.5996	164.5121	72.7944	76.8106	77.8272	78.8274	0
301	14	17	1	5	444.5632	32	1	4000	260227.5996	164.5121	78.8438	82.8600	83.8905	84.8907	0
301	14	18	1	5	536.0535	35	1	4000	260227.5996	164.5121	84.9097	88.9260	89.9425	90.9427	0
301	14	19	1	5	448.8842	32	1	4000	260227.5996	164.5121	90.9592	94.9754	96.0057	97.0059	0
301	14	20	1	5	391.3223	35	1	4000	260227.5996	164.5121	97.0252	101.0414	102.0717	103.0719	0
301	14	21	1	5	381.3751	35	1	4000	260227.5996	164.5121	103.0912	107.1075	108.1376	109.1378	0
301	14	22	1	5	521.5072	32	1	4000	260227.5996	164.5121	109.1573	113.1735	114.1899	115.1901	0
301	14	23	1	5	374.9612	35	1	4000	260227.5996	164.5121	115.2067	119.2229	120.2394	121.2396	0
301	14	24	1	5	446.0776	32	1	4000	260227.5996	164.5121	121.2561	125.2722	126.2888	127.2890	0
301	14	25	1	5	398.8322	35	1	4000	260227.5996	164.5121	127.3053	131.3216	132.3516	133.3517	0
301	14	26	1	5	410.2753	35	1	4000	260227.5996	164.5121	133.3714	137.3876	138.4042	139.4044	0
301	14	27	1	5	408.8190	35	1	4000	260227.5996	164.5121	139.4208	143.4370	144.4535	145.4537	0
301	14	28	1	5	424.4887	32	1	4000	260227.5996	164.5121	145.4701	149.4863	150.5028	151.5030	0
301	14	29	1	5	462.6803	32	1	4000	260227.5996	164.5121	151.5195	155.5357	156.5523	157.5525	0
301	14	30	1	5	424.2086	32	1	4000	260227.5996	164.5121	157.5689	161.5982	162.6148	163.6149	0
301	15	1	1	5	470.2070	35	1	1000	260227.5996	163.6164	 0.0182	 1.0476	 2.0641	 3.0643	0
301	15	2	1	5	973.5934	32	1	1000	260227.5996	163.6164	 3.0807	 4.0973	 5.1138	 6.1140	0
301	15	3	1	5	883.7986	32	1	1000	260227.5996	163.6164	 6.1304	 7.1470	 8.1635	 9.1637	0
301	15	4	1	5	666.1282	32	1	1000	260227.5996	163.6164	 9.1800	10.1965	11.2131	12.2133	0
301	15	5	1	5	456.4354	35	1	1000	260227.5996	163.6164	12.2296	13.2462	14.2627	15.2629	0
301	15	6	1	5	431.0167	35	1	1000	260227.5996	163.6164	15.2793	16.2958	17.3124	18.3126	0
301	15	7	1	5	512.8329	32	1	4000	260227.5996	163.6164	18.3289	22.3492	23.3657	24.3658	0
301	15	8	1	5	415.4705	35	1	4000	260227.5996	163.6164	24.3822	28.3985	29.4150	30.4152	0
301	15	9	1	5	405.9862	35	1	4000	260227.5996	163.6164	30.4316	34.4478	35.4644	36.4646	0
301	15	10	1	5	376.8441	35	1	4000	260227.5996	163.6164	36.4935	40.5097	41.5263	42.5265	0
301	15	11	1	5	607.5833	32	1	4000	260227.5996	163.6164	42.5428	46.5591	47.5756	48.5758	0
301	15	12	1	5	357.9569	35	1	4000	260227.5996	163.6164	48.5922	52.6083	53.6249	54.6251	0
301	15	13	1	5	452.3850	32	1	4000	260227.5996	163.6164	54.6414	58.6576	59.6743	60.6745	0
301	15	14	1	5	467.2734	32	1	4000	260227.5996	163.6164	60.6907	64.7069	65.7235	66.7237	0
301	15	15	1	5	401.6673	35	1	4000	260227.5996	163.6164	66.7400	70.7563	71.7727	72.7729	0
301	15	16	1	5	528.8223	32	1	4000	260227.5996	163.6164	72.7894	76.8055	77.8221	78.8223	0
301	15	17	1	5	391.3081	35	1	4000	260227.5996	163.6164	78.8386	82.8549	83.8713	84.8715	0
301	15	18	1	5	405.7632	35	1	4000	260227.5996	163.6164	84.8879	88.9041	89.9207	90.9209	0
301	15	19	1	5	480.6191	32	1	4000	260227.5996	163.6164	90.9420	94.9581	95.9746	96.9748	0
301	15	20	1	5	430.9712	35	1	4000	260227.5996	163.6164	96.9913	101.0076	102.0241	103.0243	0
301	15	21	1	5	413.8127	35	1	4000	260227.5996	163.6164	103.0406	107.0569	108.0734	109.0736	0
301	15	22	1	5	460.2658	35	1	4000	260227.5996	163.6164	109.0900	113.1062	114.1228	115.1230	0
301	15	23	1	5	506.6248	32	1	4000	260227.5996	163.6164	115.1394	119.1556	120.1722	121.1724	0
301	15	24	1	5	429.7812	32	1	4000	260227.5996	163.6164	121.1887	125.2166	126.2332	127.2334	0
301	15	25	1	5	428.1233	35	1	4000	260227.5996	163.6164	127.2497	131.2659	132.2824	133.2826	0
301	15	26	1	5	427.2747	35	1	4000	260227.5996	163.6164	133.2989	137.3153	138.3318	139.3319	0
301	15	27	1	5	417.9707	32	1	4000	260227.5996	163.6164	139.3483	143.3645	144.3811	145.3813	0
301	15	28	1	5	480.8335	32	1	4000	260227.5996	163.6164	145.3976	149.4138	150.4304	151.4306	0
301	15	29	1	5	414.8573	32	1	4000	260227.5996	163.6164	151.4471	155.4632	156.4797	157.4799	0
301	15	30	1	5	397.7639	35	1	4000	260227.5996	163.6164	157.4962	161.5125	162.5290	163.5292	0
301	16	1	1	6	397.2349	35	1	1000	260844.8159	 0.0025	 0.0166	 1.0331	 2.0497	 3.0503	0
301	16	2	1	6	451.7038	35	1	1000	260844.8159	 0.0025	 3.0662	 4.0826	 5.0992	 6.0997	0
301	16	3	1	6	449.4587	32	1	1000	260844.8159	 0.0025	 6.1159	 7.1324	 8.1489	 9.1494	0
301	16	4	1	6	462.2256	35	1	1000	260844.8159	 0.0025	 9.1655	10.1921	11.2087	12.2091	0
301	16	5	1	6	426.7966	35	1	1000	260844.8159	 0.0025	12.2255	13.2586	14.2819	15.2865	0
301	16	6	1	6	419.2528	32	1	1000	260844.8159	 0.0025	15.2982	16.3146	17.3312	18.3314	0
301	16	7	1	6	392.7118	35	1	4000	260844.8159	 0.0025	18.3578	22.3740	23.3905	24.3907	0
301	16	8	1	6	359.3135	35	1	4000	260844.8159	 0.0025	24.4071	28.4233	29.4398	30.4400	0
301	16	9	1	6	421.0789	32	1	4000	260844.8159	 0.0025	30.4564	34.4726	35.4891	36.4893	0
301	16	10	1	6	372.7004	35	1	4000	260844.8159	 0.0025	36.5057	40.5219	41.5384	42.5386	0
301	16	11	1	6	371.2599	35	1	4000	260844.8159	 0.0025	42.5550	46.5713	47.5878	48.5880	0
301	16	12	1	6	434.2496	35	1	4000	260844.8159	 0.0025	48.6043	52.6204	53.6369	54.6371	0
301	16	13	1	6	367.7840	35	1	4000	260844.8159	 0.0025	54.6536	58.6698	59.6864	60.6866	0
301	16	14	1	6	575.2776	32	1	4000	260844.8159	 0.0025	60.7029	64.7191	65.7356	66.7358	0
301	16	15	1	6	422.1590	32	1	4000	260844.8159	 0.0025	66.7523	70.7685	71.7849	72.7851	0
301	16	16	1	6	468.2347	32	1	4000	260844.8159	 0.0025	72.8015	76.8177	77.8342	78.8344	0
301	16	17	1	6	371.6078	35	1	4000	260844.8159	 0.0025	78.8508	82.8670	83.8835	84.8837	0
301	16	18	1	6	450.0773	32	1	4000	260844.8159	 0.0025	84.9001	88.9163	89.9329	90.9331	0
301	16	19	1	6	384.2459	35	1	4000	260844.8159	 0.0025	90.9494	94.9656	95.9821	96.9823	0
301	16	20	1	6	407.5769	35	1	4000	260844.8159	 0.0025	96.9988	101.0149	102.0315	103.0316	0
301	16	21	1	6	405.5078	35	1	4000	260844.8159	 0.0025	103.0480	107.0642	108.0808	109.0810	0
301	16	22	1	6	452.3059	32	1	4000	260844.8159	 0.0025	109.0973	113.1135	114.1300	115.1302	0
301	16	23	1	6	459.6079	35	1	4000	260844.8159	 0.0025	115.1466	119.1629	120.1794	121.1796	0
301	16	24	1	6	450.2511	35	1	4000	260844.8159	 0.0025	121.1959	125.2121	126.2287	127.2288	0
301	16	25	1	6	464.3126	32	1	4000	260844.8159	 0.0025	127.2452	131.2615	132.2779	133.2781	0
301	16	26	1	6	695.2272	32	1	4000	260844.8159	 0.0025	133.2946	137.3107	138.3273	139.3274	0
301	16	27	1	6	518.6117	32	1	4000	260844.8159	 0.0025	139.3438	143.3600	144.3766	145.3767	0
301	16	28	1	6	485.0396	32	1	4000	260844.8159	 0.0025	145.3932	149.4093	150.4259	151.4261	0
301	16	29	1	6	443.4112	35	1	4000	260844.8159	 0.0025	151.4424	155.4586	156.4752	157.4754	0
301	16	30	1	6	393.7946	32	1	4000	260844.8159	 0.0025	157.4917	161.5079	162.5245	163.5247	0
301	17	1	1	6	446.9561	35	1	1000	260844.8159	163.5263	 0.0146	 1.0311	 2.0476	 3.0478	0
301	17	2	1	6	437.6472	35	1	1000	260844.8159	163.5263	 3.0642	 4.0808	 5.0974	 6.0976	0
301	17	3	1	6	396.4120	35	1	1000	260844.8159	163.5263	 6.1139	 7.1304	 8.1471	 9.1473	0
301	17	4	1	6	394.0330	35	1	1000	260844.8159	163.5263	 9.1636	10.1801	11.1967	12.1969	0
301	17	5	1	6	424.5608	35	1	1000	260844.8159	163.5263	12.2133	13.2298	14.2464	15.2466	0
301	17	6	1	6	375.3791	35	1	1000	260844.8159	163.5263	15.2630	16.2795	17.2960	18.2962	0
301	17	7	1	6	453.9445	35	1	4000	260844.8159	163.5263	18.3207	22.3371	23.3535	24.3537	0
301	17	8	1	6	460.5740	35	1	4000	260844.8159	163.5263	24.3700	28.3862	29.4029	30.4030	0
301	17	9	1	6	411.3789	35	1	4000	260844.8159	163.5263	30.4194	34.4356	35.4522	36.4524	0
301	17	10	1	6	514.0829	32	1	4000	260844.8159	163.5263	36.4687	40.4848	41.5013	42.5015	0
301	17	11	1	6	464.0550	32	1	4000	260844.8159	163.5263	42.5179	46.5342	47.5508	48.5509	0
301	17	12	1	6	422.7829	35	1	4000	260844.8159	163.5263	48.5673	52.5835	53.6000	54.6002	0
301	17	13	1	6	445.2453	35	1	4000	260844.8159	163.5263	54.6166	58.6325	59.6494	60.6496	0
301	17	14	1	6	436.1902	32	1	4000	260844.8159	163.5263	60.6659	64.6820	65.6987	66.6989	0
301	17	15	1	6	483.2403	32	1	4000	260844.8159	163.5263	66.7151	70.7313	71.7480	72.7482	0
301	17	16	1	6	418.2681	35	1	4000	260844.8159	163.5263	72.7645	76.7807	77.7973	78.7975	0
301	17	17	1	6	440.7122	32	1	4000	260844.8159	163.5263	78.8138	82.8300	83.8466	84.8468	0
301	17	18	1	6	398.7521	32	1	4000	260844.8159	163.5263	84.8632	88.8793	89.8959	90.8961	0
301	17	19	1	6	501.6619	32	1	4000	260844.8159	163.5263	90.9124	94.9285	95.9452	96.9453	0
301	17	20	1	6	404.7236	35	1	4000	260844.8159	163.5263	96.9617	100.9779	101.9944	102.9946	0
301	17	21	1	6	411.6076	32	1	4000	260844.8159	163.5263	103.0110	107.0272	108.0437	109.0439	0
301	17	22	1	6	409.8066	32	1	4000	260844.8159	163.5263	109.0603	113.0765	114.0930	115.0931	0
301	17	23	1	6	680.9357	32	1	4000	260844.8159	163.5263	115.1095	119.1258	120.1424	121.1425	0
301	17	24	1	6	423.0593	35	1	4000	260844.8159	163.5263	121.1589	125.1752	126.1917	127.1919	0
301	17	25	1	6	494.0285	35	1	4000	260844.8159	163.5263	127.2082	131.2244	132.2409	133.2411	0
301	17	26	1	6	436.3354	35	1	4000	260844.8159	163.5263	133.2576	137.2737	138.2903	139.2905	0
301	17	27	1	6	427.9676	35	1	4000	260844.8159	163.5263	139.3068	143.3230	144.3395	145.3397	0
301	17	28	1	6	425.6130	35	1	4000	260844.8159	163.5263	145.3560	149.3723	150.3888	151.3890	0
301	17	29	1	6	424.7536	35	1	4000	260844.8159	163.5263	151.4054	155.4216	156.4382	157.4384	0
301	17	30	1	6	495.8707	32	1	4000	260844.8159	163.5263	157.4547	161.4709	162.4875	163.4876	0
301	18	1	1	6	527.0119	32	1	1000	260844.8159	163.4891	 0.0155	 1.0318	 2.0485	 3.0487	0
301	18	2	1	6	492.8107	35	1	1000	260844.8159	163.4891	 3.0650	 4.0816	 5.0981	 6.0983	0
301	18	3	1	6	476.5964	32	1	1000	260844.8159	163.4891	 6.1211	 7.1376	 8.1543	 9.1545	0
301	18	4	1	6	363.1211	35	1	1000	260844.8159	163.4891	 9.1707	10.1875	11.2038	12.2040	0
301	18	5	1	6	433.4672	32	1	1000	260844.8159	163.4891	12.2204	13.2369	14.2535	15.2536	0
301	18	6	1	6	504.0979	32	1	1000	260844.8159	163.4891	15.2700	16.2865	17.3031	18.3033	0
301	18	7	1	6	486.5768	32	1	4000	260844.8159	163.4891	18.3196	22.3359	23.3524	24.3526	0
301	18	8	1	6	421.7160	32	1	4000	260844.8159	163.4891	24.3690	28.3851	29.4017	30.4019	0
301	18	9	1	6	428.4933	32	1	4000	260844.8159	163.4891	30.4183	34.4345	35.4510	36.4511	0
301	18	10	1	6	395.0380	35	1	4000	260844.8159	163.4891	36.4676	40.4838	41.5003	42.5005	0
301	18	11	1	6	465.2488	35	1	4000	260844.8159	163.4891	42.5169	46.5331	47.5496	48.5498	0
301	18	12	1	6	416.0179	35	1	4000	260844.8159	163.4891	48.5662	52.5824	53.5988	54.5990	0
301	18	13	1	6	382.5542	35	1	4000	260844.8159	163.4891	54.6154	58.6317	59.6482	60.6484	0
301	18	14	1	6	429.3070	32	1	4000	260844.8159	163.4891	60.6649	64.6809	65.6976	66.6977	0
301	18	15	1	6	372.3052	35	1	4000	260844.8159	163.4891	66.7141	70.7303	71.7468	72.7470	0
301	18	16	1	6	386.9360	35	1	4000	260844.8159	163.4891	72.7634	76.7796	77.7961	78.7964	0
301	18	17	1	6	417.3659	35	1	4000	260844.8159	163.4891	78.8127	82.8289	83.8454	84.8456	0
301	18	18	1	6	448.2852	32	1	4000	260844.8159	163.4891	84.8620	88.8782	89.8947	90.8949	0
301	18	19	1	6	375.0523	35	1	4000	260844.8159	163.4891	90.9112	94.9275	95.9440	96.9442	0
301	18	20	1	6	381.9282	35	1	4000	260844.8159	163.4891	96.9606	100.9768	101.9934	102.9936	0
301	18	21	1	6	452.6270	35	1	4000	260844.8159	163.4891	103.0099	107.0261	108.0426	109.0428	0
301	18	22	1	6	427.4600	32	1	4000	260844.8159	163.4891	109.0592	113.0754	114.0920	115.0921	0
301	18	23	1	6	417.5252	35	1	4000	260844.8159	163.4891	115.1085	119.1246	120.1413	121.1415	0
301	18	24	1	6	408.3952	32	1	4000	260844.8159	163.4891	121.1578	125.1741	126.1906	127.1907	0
301	18	25	1	6	407.0897	32	1	4000	260844.8159	163.4891	127.2071	131.2233	132.2399	133.2401	0
301	18	26	1	6	414.1381	35	1	4000	260844.8159	163.4891	133.2564	137.2726	138.2892	139.2894	0
301	18	27	1	6	436.8112	32	1	4000	260844.8159	163.4891	139.3058	143.3219	144.3384	145.3387	0
301	18	28	1	6	403.7188	35	1	4000	260844.8159	163.4891	145.3550	149.3712	150.3878	151.3879	0
301	18	29	1	6	594.0738	32	1	4000	260844.8159	163.4891	151.4043	155.4205	156.4370	157.4372	0
301	18	30	1	6	449.3187	35	1	4000	260844.8159	163.4891	157.4536	161.4698	162.4863	163.4866	0
301	19	1	1	7	999.9285	1	0	1000	261472.4960	 0.0023	 0.0191	 1.0357	 2.0522	 3.0533	0
301	19	2	1	7	496.6898	35	1	1000	261472.4960	 0.0023	 4.0854	 5.1018	 6.1184	 7.1189	0
301	19	3	1	7	560.9951	32	1	1000	261472.4960	 0.0023	 7.1351	 8.1646	 9.1812	10.1817	0
301	19	4	1	7	388.1908	35	1	1000	261472.4960	 0.0023	10.2013	11.2178	12.2344	13.2349	0
301	19	5	1	7	416.2659	35	1	1000	261472.4960	 0.0023	13.2513	14.2677	15.2843	16.2890	0
301	19	6	1	7	376.7596	35	1	1000	261472.4960	 0.0023	16.3006	17.3171	18.3336	19.3339	0
301	19	7	1	7	728.0844	32	1	4000	261472.4960	 0.0023	19.3502	23.3664	24.3829	25.3831	0
301	19	8	1	7	414.4014	32	1	4000	261472.4960	 0.0023	25.3995	29.4157	30.4323	31.4325	0
301	19	9	1	7	461.3920	32	1	4000	261472.4960	 0.0023	31.4488	35.4650	36.4815	37.4817	0
301	19	10	1	7	443.6655	32	1	4000	261472.4960	 0.0023	37.4981	41.5143	42.5308	43.5310	0
301	19	11	1	7	427.0521	35	1	4000	261472.4960	 0.0023	43.5473	47.5636	48.5801	49.5803	0
301	19	12	1	7	449.5953	35	1	4000	261472.4960	 0.0023	49.5967	53.6129	54.6294	55.6296	0
301	19	13	1	7	472.1665	32	1	4000	261472.4960	 0.0023	55.6459	59.6622	60.6787	61.6789	0
301	19	14	1	7	430.9046	35	1	4000	261472.4960	 0.0023	61.6952	65.7115	66.7280	67.7282	0
301	19	15	1	7	493.8044	32	1	4000	261472.4960	 0.0023	67.7446	71.7607	72.7773	73.7775	0
301	19	16	1	7	372.7337	35	1	4000	261472.4960	 0.0023	73.7939	77.8101	78.8266	79.8268	0
301	19	17	1	7	410.4901	35	1	4000	261472.4960	 0.0023	79.8432	83.8593	84.8759	85.8761	0
301	19	18	1	7	425.9351	35	1	4000	261472.4960	 0.0023	85.8925	89.9086	90.9252	91.9254	0
301	19	19	1	7	367.9683	35	1	4000	261472.4960	 0.0023	91.9418	95.9580	96.9746	97.9748	0
301	19	20	1	7	423.1401	35	1	4000	261472.4960	 0.0023	97.9911	102.0073	103.0239	104.0240	0
301	19	21	1	7	478.0060	32	1	4000	261472.4960	 0.0023	104.0404	108.0566	109.0731	110.0733	0
301	19	22	1	7	436.4097	35	1	4000	261472.4960	 0.0023	110.0897	114.1059	115.1224	116.1226	0
301	19	23	1	7	402.7875	35	1	4000	261472.4960	 0.0023	116.1390	120.1552	121.1717	122.1719	0
301	19	24	1	7	433.7444	32	1	4000	261472.4960	 0.0023	122.1883	126.2045	127.2210	128.2212	0
301	19	25	1	7	520.8178	32	1	4000	261472.4960	 0.0023	128.2376	132.2538	133.2703	134.2705	0
301	19	26	1	7	455.1767	32	1	4000	261472.4960	 0.0023	134.2870	138.3031	139.3196	140.3198	0
301	19	27	1	7	405.8623	35	1	4000	261472.4960	 0.0023	140.3362	144.3524	145.3689	146.3691	0
301	19	28	1	7	924.7088	35	0	4000	261472.4960	 0.0023	146.3855	150.4017	151.4183	152.4185	0
301	19	29	1	7	379.1594	35	1	4000	261472.4960	 0.0023	153.4514	157.4675	158.4841	159.4843	0
301	19	30	1	7	401.5444	35	1	4000	261472.4960	 0.0023	159.5007	163.5170	164.5334	165.5336	0
301	20	1	1	7	479.8163	32	1	1000	261472.4960	165.5351	 0.0141	 1.0304	 2.0470	 3.0471	0
301	20	2	1	7	806.6156	32	1	1000	261472.4960	165.5351	 3.0635	 4.0800	 5.0966	 6.0968	0
301	20	3	1	7	452.2724	35	1	1000	261472.4960	165.5351	 6.1132	 7.1297	 8.1462	 9.1464	0
301	20	4	1	7	523.4117	32	1	1000	261472.4960	165.5351	 9.1628	10.1793	11.1958	12.1960	0
301	20	5	1	7	513.1707	32	1	1000	261472.4960	165.5351	12.2124	13.2290	14.2455	15.2457	0
301	20	6	1	7	432.0330	35	1	1000	261472.4960	165.5351	15.2621	16.2787	17.2952	18.2954	0
301	20	7	1	7	510.7279	32	1	4000	261472.4960	165.5351	18.3117	22.3279	23.3445	24.3447	0
301	20	8	1	7	388.7007	35	1	4000	261472.4960	165.5351	24.3611	28.3772	29.3938	30.3940	0
301	20	9	1	7	451.7285	32	1	4000	261472.4960	165.5351	30.4103	34.4266	35.4431	36.4433	0
301	20	10	1	7	370.1252	35	1	4000	261472.4960	165.5351	36.4596	40.4759	41.4924	42.4926	0
301	20	11	1	7	393.2018	35	1	4000	261472.4960	165.5351	42.5090	46.5251	47.5417	48.5419	0
301	20	12	1	7	440.6089	35	1	4000	261472.4960	165.5351	48.5583	52.5745	53.5911	54.5913	0
301	20	13	1	7	486.9050	35	1	4000	261472.4960	165.5351	54.6076	58.6237	59.6403	60.6405	0
301	20	14	1	7	541.9650	32	1	4000	261472.4960	165.5351	60.6569	64.6731	65.6896	66.6898	0
301	20	15	1	7	363.7080	35	1	4000	261472.4960	165.5351	66.7061	70.7224	71.7389	72.7391	0
301	20	16	1	7	458.5958	32	1	4000	261472.4960	165.5351	72.7555	76.7717	77.7882	78.7884	0
301	20	17	1	7	425.3295	32	1	4000	261472.4960	165.5351	78.8048	82.8210	83.8375	84.8377	0
301	20	18	1	7	415.7677	32	1	4000	261472.4960	165.5351	84.8541	88.8703	89.8868	90.8870	0
301	20	19	1	7	366.5783	35	1	4000	261472.4960	165.5351	90.9034	94.9195	95.9360	96.9362	0
301	20	20	1	7	414.0786	35	1	4000	261472.4960	165.5351	96.9527	100.9689	101.9854	102.9856	0
301	20	21	1	7	443.7598	35	1	4000	261472.4960	165.5351	103.0020	107.0182	108.0348	109.0350	0
301	20	22	1	7	395.4620	35	1	4000	261472.4960	165.5351	109.0512	113.0675	114.0842	115.0843	0
301	20	23	1	7	482.3832	32	1	4000	261472.4960	165.5351	115.1006	119.1167	120.1332	121.1334	0
301	20	24	1	7	424.0223	32	1	4000	261472.4960	165.5351	121.1499	125.1660	126.1832	127.1833	0
301	20	25	1	7	502.7690	32	1	4000	261472.4960	165.5351	127.1990	131.2152	132.2319	133.2321	0
301	20	26	1	7	405.5647	35	1	4000	261472.4960	165.5351	133.2483	137.2645	138.2811	139.2813	0
301	20	27	1	7	397.0625	35	1	4000	261472.4960	165.5351	139.2976	143.3138	144.3302	145.3304	0
301	20	28	1	7	474.9429	32	1	4000	261472.4960	165.5351	145.3469	149.3631	150.3797	151.3798	0
301	20	29	1	7	417.5988	35	1	4000	261472.4960	165.5351	151.3963	155.4125	156.4290	157.4292	0
301	20	30	1	7	392.5907	35	1	4000	261472.4960	165.5351	157.4456	161.4619	162.4784	163.4785	0
301	21	1	1	7	383.1904	35	1	1000	261472.4960	163.4803	 0.0072	 1.0234	 2.0399	 3.0401	0
301	21	2	1	7	486.0962	32	1	1000	261472.4960	163.4803	 3.0565	 4.0731	 5.0895	 6.0897	0
301	21	3	1	7	412.4452	35	1	1000	261472.4960	163.4803	 6.1062	 7.1226	 8.1393	 9.1395	0
301	21	4	1	7	418.7510	35	1	1000	261472.4960	163.4803	 9.1558	10.1723	11.1889	12.1891	0
301	21	5	1	7	385.2253	35	1	1000	261472.4960	163.4803	12.2054	13.2221	14.2385	15.2387	0
301	21	6	1	7	343.6800	35	1	1000	261472.4960	163.4803	15.2551	16.2715	17.2882	18.2884	0
301	21	7	1	7	462.0368	32	1	4000	261472.4960	163.4803	18.3048	22.3210	23.3375	24.3377	0
301	21	8	1	7	436.3988	32	1	4000	261472.4960	163.4803	24.3541	28.3703	29.3869	30.3871	0
301	21	9	1	7	434.2389	32	1	4000	261472.4960	163.4803	30.4035	34.4198	35.4364	36.4366	0
301	21	10	1	7	488.9606	35	1	4000	261472.4960	163.4803	36.4529	40.4693	41.4858	42.4860	0
301	21	11	1	7	431.7407	35	1	4000	261472.4960	163.4803	42.5023	46.5185	47.5352	48.5354	0
301	21	12	1	7	414.7764	32	1	4000	261472.4960	163.4803	48.5518	52.5680	53.5845	54.5847	0
301	21	13	1	7	413.6151	32	1	4000	261472.4960	163.4803	54.6011	58.6173	59.6339	60.6341	0
301	21	14	1	7	427.7280	35	1	4000	261472.4960	163.4803	60.6504	64.6667	65.6833	66.6834	0
301	21	15	1	7	434.9041	35	1	4000	261472.4960	163.4803	66.6998	70.7161	71.7326	72.7328	0
301	21	16	1	7	528.9896	32	1	4000	261472.4960	163.4803	72.7492	76.7654	77.7820	78.7822	0
301	21	17	1	7	527.7578	35	1	4000	261472.4960	163.4803	78.7986	82.8148	83.8314	84.8316	0
301	21	18	1	7	422.5383	32	1	4000	261472.4960	163.4803	84.8480	88.8642	89.8807	90.8809	0
301	21	19	1	7	421.2466	35	1	4000	261472.4960	163.4803	90.8972	94.9136	95.9301	96.9303	0
301	21	20	1	7	427.8545	32	1	4000	261472.4960	163.4803	96.9467	100.9629	101.9795	102.9796	0
301	21	21	1	7	426.5533	32	1	4000	261472.4960	163.4803	102.9960	107.0123	108.0288	109.0290	0
301	21	22	1	7	409.0814	35	1	4000	261472.4960	163.4803	109.0454	113.0616	114.0782	115.0784	0
301	21	23	1	7	423.9853	35	1	4000	261472.4960	163.4803	115.0948	119.1110	120.1276	121.1278	0
301	21	24	1	7	526.7509	32	1	4000	261472.4960	163.4803	121.1441	125.1604	126.1769	127.1771	0
301	21	25	1	7	421.3253	32	1	4000	261472.4960	163.4803	127.1937	131.2097	132.2263	133.2265	0
301	21	26	1	7	403.5798	35	1	4000	261472.4960	163.4803	133.2429	137.2591	138.2757	139.2760	0
301	21	27	1	7	426.0216	35	1	4000	261472.4960	163.4803	139.2922	143.3085	144.3250	145.3252	0
301	21	28	1	7	376.4275	35	1	4000	261472.4960	163.4803	145.3416	149.3579	150.3744	151.3746	0
301	21	29	1	7	528.0205	35	1	4000	261472.4960	163.4803	151.3910	155.4072	156.4238	157.4240	0
301	21	30	1	7	461.9764	32	1	4000	261472.4960	163.4803	157.4403	161.4566	162.4731	163.4733	0
301	22	1	1	8	514.1102	35	1	1000	262076.1922	 0.0026	 0.0189	 1.0494	 2.0686	 3.0693	0
301	22	2	1	8	617.2462	32	1	1000	262076.1922	 0.0026	 3.0851	 4.1017	 5.1183	 6.1187	0
301	22	3	1	8	455.5315	35	1	1000	262076.1922	 0.0026	 6.1348	 7.1514	 8.1679	 9.1684	0
301	22	4	1	8	445.2057	32	1	1000	262076.1922	 0.0026	 9.1845	10.2150	11.2343	12.2347	0
301	22	5	1	8	416.8601	35	1	1000	262076.1922	 0.0026	12.2511	13.2677	14.2843	15.2891	0
301	22	6	1	8	401.9937	35	1	1000	262076.1922	 0.0026	15.3005	16.3170	17.3336	18.3338	0
301	22	7	1	8	464.5027	32	1	4000	262076.1922	 0.0026	18.3502	22.3664	23.3830	24.3832	0
301	22	8	1	8	375.3609	35	1	4000	262076.1922	 0.0026	24.3995	28.4158	29.4322	30.4324	0
301	22	9	1	8	413.5125	32	1	4000	262076.1922	 0.0026	30.4489	34.4652	35.4817	36.4819	0
301	22	10	1	8	428.4913	32	1	4000	262076.1922	 0.0026	36.4983	40.5145	41.5311	42.5313	0
301	22	11	1	8	388.9738	32	1	4000	262076.1922	 0.0026	42.5476	46.5639	47.5940	48.5942	0
301	22	12	1	8	424.7675	32	1	4000	262076.1922	 0.0026	48.6136	52.6299	53.6464	54.6466	0
301	22	13	1	8	362.0846	35	1	4000	262076.1922	 0.0026	54.6630	58.6792	59.7092	60.7094	0
301	22	14	1	8	432.1144	35	1	4000	262076.1922	 0.0026	60.7290	64.7453	65.7752	66.7754	0
301	22	15	1	8	411.4795	32	1	4000	262076.1922	 0.0026	66.7918	70.8113	71.8278	72.8280	0
301	22	16	1	8	410.3112	35	1	4000	262076.1922	 0.0026	72.8445	76.8607	77.8772	78.8774	0
301	22	17	1	8	409.2858	32	1	4000	262076.1922	 0.0026	78.8938	82.9100	83.9266	84.9269	0
301	22	18	1	8	391.2503	35	1	4000	262076.1922	 0.0026	84.9432	88.9594	89.9760	90.9762	0
301	22	19	1	8	469.8094	32	1	4000	262076.1922	 0.0026	90.9926	95.0088	96.0253	97.0255	0
301	22	20	1	8	436.3189	35	1	4000	262076.1922	 0.0026	97.0419	101.0582	102.0747	103.0749	0
301	22	21	1	8	403.2228	35	1	4000	262076.1922	 0.0026	103.0913	107.1076	108.1241	109.1243	0
301	22	22	1	8	641.7583	32	1	4000	262076.1922	 0.0026	109.1406	113.1569	114.1734	115.1736	0
301	22	23	1	8	403.4319	35	1	4000	262076.1922	 0.0026	115.2029	119.2191	120.2356	121.2358	0
301	22	24	1	8	391.1084	35	1	4000	262076.1922	 0.0026	121.2560	125.2723	126.2888	127.2890	0
301	22	25	1	8	392.4003	32	1	4000	262076.1922	 0.0026	127.3181	131.3344	132.3509	133.3511	0
301	22	26	1	8	371.3812	35	1	4000	262076.1922	 0.0026	133.3675	137.3877	138.4042	139.4044	0
301	22	27	1	8	354.5522	35	1	4000	262076.1922	 0.0026	139.4208	143.4370	144.4535	145.4537	0
301	22	28	1	8	737.0048	32	1	4000	262076.1922	 0.0026	145.4702	149.4864	150.5029	151.5031	0
301	22	29	1	8	390.6141	35	1	4000	262076.1922	 0.0026	151.5195	155.5358	156.5523	157.5525	0
301	22	30	1	8	361.8512	35	1	4000	262076.1922	 0.0026	157.5689	161.5975	162.6141	163.6143	0
301	23	1	1	8	419.4282	32	1	1000	262076.1922	163.6159	 0.0267	 1.0433	 2.0598	 3.0600	0
301	23	2	1	8	377.3463	35	1	1000	262076.1922	163.6159	 3.0763	 4.0929	 5.1094	 6.1096	0
301	23	3	1	8	384.4827	32	1	1000	262076.1922	163.6159	 6.1260	 7.1426	 8.1591	 9.1592	0
301	23	4	1	8	695.0577	35	1	1000	262076.1922	163.6159	 9.1756	10.1922	11.2087	12.2088	0
301	23	5	1	8	388.7747	35	1	1000	262076.1922	163.6159	12.2253	13.2418	14.2584	15.2586	0
301	23	6	1	8	387.4346	35	1	1000	262076.1922	163.6159	15.2749	16.2915	17.3080	18.3082	0
301	23	7	1	8	402.2477	32	1	4000	262076.1922	163.6159	18.3246	22.3408	23.3573	24.3575	0
301	23	8	1	8	376.4234	35	1	4000	262076.1922	163.6159	24.3739	28.3901	29.4066	30.4068	0
301	23	9	1	8	503.5491	32	1	4000	262076.1922	163.6159	30.4231	34.4395	35.4559	36.4561	0
301	23	10	1	8	357.6602	35	1	4000	262076.1922	163.6159	36.4724	40.4886	41.5052	42.5053	0
301	23	11	1	8	357.3644	35	1	4000	262076.1922	163.6159	42.5218	46.5380	47.5545	48.5547	0
301	23	12	1	8	403.2848	32	1	4000	262076.1922	163.6159	48.5710	52.5873	53.6038	54.6040	0
301	23	13	1	8	370.7516	35	1	4000	262076.1922	163.6159	54.6204	58.6366	59.6531	60.6532	0
301	23	14	1	8	400.6388	32	1	4000	262076.1922	163.6159	60.6697	64.6858	65.7024	66.7026	0
301	23	15	1	8	471.3498	32	1	4000	262076.1922	163.6159	66.7190	70.7352	71.7517	72.7519	0
301	23	16	1	8	422.8459	35	1	4000	262076.1922	163.6159	72.7682	76.7845	77.8010	78.8012	0
301	23	17	1	8	453.1648	32	1	4000	262076.1922	163.6159	78.8176	82.8338	83.8504	84.8506	0
301	23	18	1	8	379.5894	35	1	4000	262076.1922	163.6159	84.8669	88.8831	89.8996	90.8998	0
301	23	19	1	8	394.7786	35	1	4000	262076.1922	163.6159	90.9162	94.9324	95.9490	96.9491	0
301	23	20	1	8	384.8764	35	1	4000	262076.1922	163.6159	96.9655	100.9817	101.9982	102.9984	0
301	23	21	1	8	391.2211	35	1	4000	262076.1922	163.6159	103.0147	107.0311	108.0475	109.0477	0
301	23	22	1	8	454.9195	32	1	4000	262076.1922	163.6159	109.0640	113.0803	114.0968	115.0970	0
301	23	23	1	8	437.4640	32	1	4000	262076.1922	163.6159	115.1134	119.1296	120.1462	121.1463	0
301	23	24	1	8	395.9154	32	1	4000	262076.1922	163.6159	121.1627	125.1789	126.1955	127.1958	0
301	23	25	1	8	426.3625	32	1	4000	262076.1922	163.6159	127.2120	131.2282	132.2447	133.2449	0
301	23	26	1	8	424.7213	32	1	4000	262076.1922	163.6159	133.2613	137.2775	138.2940	139.2942	0
301	23	27	1	8	383.6199	35	1	4000	262076.1922	163.6159	139.3106	143.3267	144.3434	145.3436	0
301	23	28	1	8	366.8290	35	1	4000	262076.1922	163.6159	145.3599	149.3761	150.3927	151.3929	0
301	23	29	1	8	445.1714	32	1	4000	262076.1922	163.6159	151.4092	155.4253	156.4419	157.4421	0
301	23	30	1	8	404.3791	32	1	4000	262076.1922	163.6159	157.4585	161.4747	162.4913	163.4915	0
301	24	1	1	8	409.6061	32	1	1000	262076.1922	163.4929	 0.0103	 1.0269	 2.0539	 3.0541	0
301	24	2	1	8	407.5856	35	1	1000	262076.1922	163.4929	 3.0705	 4.0870	 5.1036	 6.1038	0
301	24	3	1	8	414.2352	35	1	1000	262076.1922	163.4929	 6.1202	 7.1367	 8.1532	 9.1534	0
301	24	4	1	8	396.4898	32	1	1000	262076.1922	163.4929	 9.1698	10.1864	11.2030	12.2032	0
301	24	5	1	8	411.0906	32	1	1000	262076.1922	163.4929	12.2194	13.2359	14.2525	15.2527	0
301	24	6	1	8	592.7673	32	1	1000	262076.1922	163.4929	15.2691	16.2856	17.3022	18.3023	0
301	24	7	1	8	479.4793	35	1	4000	262076.1922	163.4929	18.3187	22.3350	23.3515	24.3517	0
301	24	8	1	8	414.9799	32	1	4000	262076.1922	163.4929	24.3680	28.3839	29.4008	30.4010	0
301	24	9	1	8	565.1944	32	1	4000	262076.1922	163.4929	30.4174	34.4335	35.4500	36.4502	0
301	24	10	1	8	419.9792	32	1	4000	262076.1922	163.4929	36.4667	40.4829	41.4994	42.4996	0
301	24	11	1	8	410.1541	32	1	4000	262076.1922	163.4929	42.5160	46.5321	47.5487	48.5489	0
301	24	12	1	8	384.8600	32	1	4000	262076.1922	163.4929	48.5652	52.5815	53.5980	54.5982	0
301	24	13	1	8	383.6557	32	1	4000	262076.1922	163.4929	54.6145	58.6307	59.6473	60.6474	0
301	24	14	1	8	398.8278	32	1	4000	262076.1922	163.4929	60.6638	64.6800	65.6966	66.6968	0
301	24	15	1	8	389.6895	35	1	4000	262076.1922	163.4929	66.7132	70.7293	71.7459	72.7461	0
301	24	16	1	8	364.3100	35	1	4000	262076.1922	163.4929	72.7625	76.7787	77.7952	78.7954	0
301	24	17	1	8	426.5156	35	1	4000	262076.1922	163.4929	78.8118	82.8280	83.8445	84.8447	0
301	24	18	1	8	385.7475	32	1	4000	262076.1922	163.4929	84.8611	88.8772	89.8938	90.8940	0
301	24	19	1	8	488.5483	32	1	4000	262076.1922	163.4929	90.9103	94.9265	95.9431	96.9433	0
301	24	20	1	8	422.6698	35	1	4000	262076.1922	163.4929	96.9597	100.9759	101.9924	102.9926	0
301	24	21	1	8	429.8839	32	1	4000	262076.1922	163.4929	103.0090	107.0251	108.0417	109.0419	0
301	24	22	1	8	380.4916	35	1	4000	262076.1922	163.4929	109.0583	113.0745	114.0910	115.0912	0
301	24	23	1	8	427.1313	35	1	4000	262076.1922	163.4929	115.1076	119.1238	120.1404	121.1406	0
301	24	24	1	8	481.5922	32	1	4000	262076.1922	163.4929	121.1569	125.1730	126.1896	127.1898	0
301	24	25	1	8	408.3470	32	1	4000	262076.1922	163.4929	127.2062	131.2224	132.2389	133.2391	0
301	24	26	1	8	479.0938	32	1	4000	262076.1922	163.4929	133.2555	137.2716	138.2882	139.2884	0
301	24	27	1	8	414.3098	32	1	4000	262076.1922	163.4929	139.3048	143.3209	144.3375	145.3377	0
301	24	28	1	8	412.7160	35	1	4000	262076.1922	163.4929	145.3540	149.3702	150.3868	151.3870	0
301	24	29	1	8	419.1861	32	1	4000	262076.1922	163.4929	151.4034	155.4197	156.4361	157.4363	0
301	24	30	1	8	385.4166	32	1	4000	262076.1922	163.4929	157.4527	161.4689	162.4855	163.4856	0
