SUBID	BLOCK	TRIAL	REP	RUNID	RT	RESP	ACC	RSIJIT	EV_START	EV_BLOCK	EV_TRIAL	EV_RETRIEVAL	EV_PROBE	EV_RESP	EV_BLEND
302	1	1	1	1	529.7880	32	1	1000	1160.0050	 0.0023	 0.0159	 1.0364	 2.0529	 3.0540	0
302	1	2	1	1	769.0558	32	1	1000	1160.0050	 0.0023	 3.0695	 4.0860	 5.1026	 6.1033	0
302	1	3	1	1	654.5862	32	1	1000	1160.0050	 0.0023	 6.1192	 7.1358	 8.1522	 9.1529	0
302	1	4	1	1	416.4956	32	1	1000	1160.0050	 0.0023	 9.1688	10.1981	11.2145	12.2151	0
302	1	5	1	1	648.3230	35	0	1000	1160.0050	 0.0023	12.2356	13.2521	14.2686	15.2734	0
302	1	6	1	1	500.3771	35	1	1000	1160.0050	 0.0023	16.3014	17.3180	18.3470	19.3473	0
302	1	7	1	1	843.4175	35	1	4000	1160.0050	 0.0023	19.3636	23.3799	24.3963	25.3965	0
302	1	8	1	1	705.3500	32	0	4000	1160.0050	 0.0023	25.4129	29.4291	30.4455	31.4457	0
302	1	9	1	1	522.5676	35	1	4000	1160.0050	 0.0023	32.4997	36.5159	37.5325	38.5327	0
302	1	10	1	1	461.3081	32	1	4000	1160.0050	 0.0023	38.5491	42.5775	43.5941	44.5943	0
302	1	11	1	1	771.5619	32	0	4000	1160.0050	 0.0023	44.6106	48.6269	49.6435	50.6437	0
302	1	12	1	1	533.3756	35	1	4000	1160.0050	 0.0023	51.6810	55.6973	56.7139	57.7141	0
302	1	13	1	1	540.3325	35	1	4000	1160.0050	 0.0023	57.7304	61.7467	62.7632	63.7634	0
302	1	14	1	1	482.7501	32	1	4000	1160.0050	 0.0023	63.7798	67.7961	68.8126	69.8127	0
302	1	15	1	1	521.7119	35	1	4000	1160.0050	 0.0023	69.8292	73.8454	74.8620	75.8622	0
302	1	16	1	1	451.9525	32	1	4000	1160.0050	 0.0023	75.8785	79.9066	80.9232	81.9234	0
302	1	17	1	1	482.8191	32	1	4000	1160.0050	 0.0023	81.9397	85.9558	86.9724	87.9726	0
302	1	18	1	1	401.3525	35	1	4000	1160.0050	 0.0023	87.9890	92.0052	93.0217	94.0219	0
302	1	19	1	1	443.0774	32	1	4000	1160.0050	 0.0023	94.0432	98.0595	99.0761	100.0763	0
302	1	20	1	1	482.1615	35	1	4000	1160.0050	 0.0023	100.0926	104.1089	105.1254	106.1256	0
302	1	21	1	1	572.5851	35	1	4000	1160.0050	 0.0023	106.1420	110.1582	111.1863	112.1865	0
302	1	22	1	1	459.6063	32	1	4000	1160.0050	 0.0023	112.2029	116.2191	117.2356	118.2358	0
302	1	23	1	1	410.4584	35	1	4000	1160.0050	 0.0023	118.2522	122.2684	123.2850	124.2852	0
302	1	24	1	1	409.3613	32	1	4000	1160.0050	 0.0023	124.3014	128.3177	129.3340	130.3342	0
302	1	25	1	1	576.1128	35	1	4000	1160.0050	 0.0023	130.3508	134.3670	135.3835	136.3837	0
302	1	26	1	1	422.8358	32	1	4000	1160.0050	 0.0023	136.4001	140.4163	141.4329	142.4331	0
302	1	27	1	1	421.0592	35	1	4000	1160.0050	 0.0023	142.4494	146.4656	147.4821	148.4823	0
302	1	28	1	1	468.2950	35	1	4000	1160.0050	 0.0023	148.4987	152.5149	153.5315	154.5317	0
302	1	29	1	1	595.0029	32	1	4000	1160.0050	 0.0023	154.5480	158.5642	159.5808	160.5810	0
302	1	30	1	1	416.7962	32	1	4000	1160.0050	 0.0023	160.5973	164.6135	165.6300	166.6302	0
302	2	1	1	1	389.0678	35	1	1000	1160.0050	166.6317	 0.0246	 1.0411	 2.0577	 3.0579	0
302	2	2	1	1	564.3984	35	1	1000	1160.0050	166.6317	 3.0742	 4.0908	 5.1073	 6.1078	0
302	2	3	1	1	410.7298	35	1	1000	1160.0050	166.6317	 6.1238	 7.1404	 8.1569	 9.1571	0
302	2	4	1	1	432.5923	35	1	1000	1160.0050	166.6317	 9.1735	10.1901	11.2066	12.2068	0
302	2	5	1	1	447.1028	35	1	1000	1160.0050	166.6317	12.2231	13.2398	14.2562	15.2563	0
302	2	6	1	1	429.2807	32	1	1000	1160.0050	166.6317	15.2728	16.2894	17.3059	18.3061	0
302	2	7	1	1	371.4448	35	1	4000	1160.0050	166.6317	18.3224	22.3386	23.3552	24.3554	0
302	2	8	1	1	386.9198	35	1	4000	1160.0050	166.6317	24.3718	28.3882	29.4045	30.4047	0
302	2	9	1	1	569.3965	32	1	4000	1160.0050	166.6317	30.4211	34.4372	35.4539	36.4541	0
302	2	10	1	1	543.7193	32	1	4000	1160.0050	166.6317	36.4704	40.4865	41.5031	42.5033	0
302	2	11	1	1	391.0977	32	1	4000	1160.0050	166.6317	42.5196	46.5358	47.5524	48.5526	0
302	2	12	1	1	389.6422	35	1	4000	1160.0050	166.6317	48.5690	52.5852	53.6017	54.6019	0
302	2	13	1	1	363.8623	32	1	4000	1160.0050	166.6317	54.6183	58.6345	59.6511	60.6513	0
302	2	14	1	1	690.5669	35	0	4000	1160.0050	166.6317	60.6676	64.6838	65.7003	66.7005	0
302	2	15	1	1	496.8908	35	1	4000	1160.0050	166.6317	67.7334	71.7496	72.7662	73.7664	0
302	2	16	1	1	375.4823	35	1	4000	1160.0050	166.6317	73.7828	77.7989	78.8155	79.8157	0
302	2	17	1	1	478.5859	32	1	4000	1160.0050	166.6317	79.8320	83.8482	84.8648	85.8650	0
302	2	18	1	1	420.8773	32	1	4000	1160.0050	166.6317	85.8814	89.8975	90.9141	91.9142	0
302	2	19	1	1	420.1638	35	1	4000	1160.0050	166.6317	91.9306	95.9468	96.9634	97.9636	0
302	2	20	1	1	402.2219	32	1	4000	1160.0050	166.6317	97.9799	101.9962	103.0127	104.0129	0
302	2	21	1	1	448.6927	32	1	4000	1160.0050	166.6317	104.0292	108.0455	109.0620	110.0622	0
302	2	22	1	1	368.4380	32	1	4000	1160.0050	166.6317	110.0786	114.0948	115.1113	116.1115	0
302	2	23	1	1	390.6386	35	1	4000	1160.0050	166.6317	116.1279	120.1440	121.1607	122.1609	0
302	2	24	1	1	405.2762	35	1	4000	1160.0050	166.6317	122.1772	126.1933	127.2099	128.2101	0
302	2	25	1	1	388.3317	32	1	4000	1160.0050	166.6317	128.2264	132.2426	133.2593	134.2594	0
302	2	26	1	1	450.2568	32	1	4000	1160.0050	166.6317	134.2757	138.2920	139.3085	140.3087	0
302	2	27	1	1	385.7573	32	1	4000	1160.0050	166.6317	140.3251	144.3413	145.3578	146.3580	0
302	2	28	1	1	343.5992	35	1	4000	1160.0050	166.6317	146.3743	150.3905	151.4071	152.4073	0
302	2	29	1	1	391.4468	35	1	4000	1160.0050	166.6317	152.4237	156.4399	157.4564	158.4565	0
302	2	30	1	1	413.4783	32	1	4000	1160.0050	166.6317	158.4730	162.4891	163.5057	164.5059	0
302	3	1	1	1	438.7337	35	1	1000	1160.0050	164.5073	 0.0147	 1.0312	 2.0477	 3.0480	0
302	3	2	1	1	406.1440	32	1	1000	1160.0050	164.5073	 3.0643	 4.0808	 5.0974	 6.0976	0
302	3	3	1	1	411.7594	32	1	1000	1160.0050	164.5073	 6.1140	 7.1305	 8.1470	 9.1472	0
302	3	4	1	1	401.6206	35	1	1000	1160.0050	164.5073	 9.1636	10.1801	11.1968	12.1970	0
302	3	5	1	1	376.0975	32	1	1000	1160.0050	164.5073	12.2132	13.2298	14.2464	15.2466	0
302	3	6	1	1	366.5685	35	1	1000	1160.0050	164.5073	15.2630	16.2794	17.2960	18.2962	0
302	3	7	1	1	397.3430	35	1	4000	1160.0050	164.5073	18.3125	22.3287	23.3453	24.3455	0
302	3	8	1	1	412.6608	35	1	4000	1160.0050	164.5073	24.3618	28.3781	29.3946	30.3948	0
302	3	9	1	1	378.7122	35	1	4000	1160.0050	164.5073	30.4112	34.4274	35.4440	36.4442	0
302	3	10	1	1	377.7086	35	1	4000	1160.0050	164.5073	36.4604	40.4767	41.4932	42.4934	0
302	3	11	1	1	408.3154	32	1	4000	1160.0050	164.5073	42.5097	46.5260	47.5425	48.5427	0
302	3	12	1	1	406.7235	35	1	4000	1160.0050	164.5073	48.5591	52.5752	53.5918	54.5920	0
302	3	13	1	1	437.7042	32	1	4000	1160.0050	164.5073	54.6084	58.6246	59.6411	60.6413	0
302	3	14	1	1	380.3252	32	1	4000	1160.0050	164.5073	60.6577	64.6739	65.6905	66.6906	0
302	3	15	1	1	403.6603	32	1	4000	1160.0050	164.5073	66.7070	70.7232	71.7397	72.7399	0
302	3	16	1	1	569.8350	35	1	4000	1160.0050	164.5073	72.7563	76.7725	77.7889	78.7891	0
302	3	17	1	1	416.2987	32	1	4000	1160.0050	164.5073	78.8056	82.8218	83.8383	84.8385	0
302	3	18	1	1	375.8540	32	1	4000	1160.0050	164.5073	84.8549	88.8711	89.8876	90.8878	0
302	3	19	1	1	406.0593	32	1	4000	1160.0050	164.5073	90.9042	94.9204	95.9369	96.9371	0
302	3	20	1	1	380.9217	35	1	4000	1160.0050	164.5073	96.9535	100.9696	101.9862	102.9864	0
302	3	21	1	1	395.1389	35	1	4000	1160.0050	164.5073	103.0028	107.0190	108.0355	109.0357	0
302	3	22	1	1	393.7245	35	1	4000	1160.0050	164.5073	109.0521	113.0684	114.0848	115.0850	0
302	3	23	1	1	432.9982	32	1	4000	1160.0050	164.5073	115.1014	119.1176	120.1342	121.1344	0
302	3	24	1	1	479.1451	32	1	4000	1160.0050	164.5073	121.1507	125.1669	126.1834	127.1836	0
302	3	25	1	1	414.7067	35	1	4000	1160.0050	164.5073	127.2000	131.2162	132.2327	133.2329	0
302	3	26	1	1	389.0168	35	1	4000	1160.0050	164.5073	133.2493	137.2655	138.2821	139.2823	0
302	3	27	1	1	395.0744	32	1	4000	1160.0050	164.5073	139.2986	143.3147	144.3315	145.3317	0
302	3	28	1	1	386.8203	35	1	4000	1160.0050	164.5073	145.3479	149.3641	150.3807	151.3809	0
302	3	29	1	1	441.2590	32	1	4000	1160.0050	164.5073	151.3972	155.4133	156.4300	157.4302	0
302	3	30	1	1	407.7179	35	1	4000	1160.0050	164.5073	157.4465	161.4627	162.4793	163.4795	0
302	4	1	1	2	631.8745	35	1	1000	1845.3534	 0.0030	 0.0204	 1.0369	 2.0535	 3.0582	0
302	4	2	1	2	461.3897	32	1	1000	1845.3534	 0.0030	 3.0803	 4.0970	 5.1137	 6.1144	0
302	4	3	1	2	370.8821	35	1	1000	1845.3534	 0.0030	 6.1302	 7.1468	 8.1633	 9.1639	0
302	4	4	1	2	355.9399	35	1	1000	1845.3534	 0.0030	 9.1799	10.2023	11.2187	12.2189	0
302	4	5	1	2	378.5286	32	1	1000	1845.3534	 0.0030	12.2353	13.2519	14.2685	15.2686	0
302	4	6	1	2	360.8552	35	1	1000	1845.3534	 0.0030	15.2849	16.3015	17.3180	18.3182	0
302	4	7	1	2	503.7891	32	1	4000	1845.3534	 0.0030	18.3346	22.3508	23.3674	24.3675	0
302	4	8	1	2	389.7426	32	1	4000	1845.3534	 0.0030	24.3838	28.4001	29.4166	30.4168	0
302	4	9	1	2	396.2096	35	1	4000	1845.3534	 0.0030	30.4332	34.4494	35.4659	36.4661	0
302	4	10	1	2	387.8108	32	1	4000	1845.3534	 0.0030	36.4825	40.4987	41.5152	42.5154	0
302	4	11	1	2	394.4129	35	1	4000	1845.3534	 0.0030	42.5318	46.5480	47.5646	48.5647	0
302	4	12	1	2	424.9953	32	1	4000	1845.3534	 0.0030	48.5812	52.5973	53.6139	54.6140	0
302	4	13	1	2	351.8591	35	1	4000	1845.3534	 0.0030	54.6304	58.6466	59.6632	60.6634	0
302	4	14	1	2	390.2318	32	1	4000	1845.3534	 0.0030	60.6797	64.6959	65.7124	66.7126	0
302	4	15	1	2	381.2875	35	1	4000	1845.3534	 0.0030	66.7291	70.7452	71.7618	72.7620	0
302	4	16	1	2	403.7577	32	1	4000	1845.3534	 0.0030	72.7783	76.7944	77.8110	78.8112	0
302	4	17	1	2	410.4760	32	1	4000	1845.3534	 0.0030	78.8276	82.8438	83.8604	84.8607	0
302	4	18	1	2	464.8853	32	1	4000	1845.3534	 0.0030	84.8769	88.8932	89.9097	90.9099	0
302	4	19	1	2	415.7274	32	1	4000	1845.3534	 0.0030	90.9263	94.9425	95.9590	96.9592	0
302	4	20	1	2	382.9422	32	1	4000	1845.3534	 0.0030	96.9755	100.9916	102.0083	103.0085	0
302	4	21	1	2	349.5151	35	1	4000	1845.3534	 0.0030	103.0248	107.0410	108.0576	109.0578	0
302	4	22	1	2	371.5701	35	1	4000	1845.3534	 0.0030	109.0741	113.0903	114.1069	115.1071	0
302	4	23	1	2	378.5074	35	1	4000	1845.3534	 0.0030	115.1234	119.1396	120.1562	121.1563	0
302	4	24	1	2	377.0430	32	1	4000	1845.3534	 0.0030	121.1728	125.1889	126.2055	127.2057	0
302	4	25	1	2	383.6934	35	1	4000	1845.3534	 0.0030	127.2220	131.2383	132.2548	133.2550	0
302	4	26	1	2	390.0522	32	1	4000	1845.3534	 0.0030	133.2713	137.2875	138.3041	139.3043	0
302	4	27	1	2	396.8666	32	1	4000	1845.3534	 0.0030	139.3206	143.3368	144.3534	145.3536	0
302	4	28	1	2	404.1752	32	1	4000	1845.3534	 0.0030	145.3700	149.3861	150.4027	151.4029	0
302	4	29	1	2	394.7917	32	1	4000	1845.3534	 0.0030	151.4193	155.4355	156.4520	157.4522	0
302	4	30	1	2	425.6306	32	1	4000	1845.3534	 0.0030	157.4685	161.4848	162.5012	163.5014	0
302	5	1	1	2	447.1329	35	1	1000	1845.3534	163.5052	 0.0065	 1.0232	 2.0399	 3.0401	0
302	5	2	1	2	572.9863	32	1	1000	1845.3534	163.5052	 3.0562	 4.0728	 5.0894	 6.0896	0
302	5	3	1	2	891.8271	32	1	1000	1845.3534	163.5052	 6.1058	 7.1225	 8.1390	 9.1392	0
302	5	4	1	2	514.2655	32	1	1000	1845.3534	163.5052	 9.1556	10.1722	11.1887	12.1889	0
302	5	5	1	2	400.7877	32	1	1000	1845.3534	163.5052	12.2052	13.2218	14.2384	15.2386	0
302	5	6	1	2	454.9181	35	1	1000	1845.3534	163.5052	15.2551	16.2715	17.2880	18.2882	0
302	5	7	1	2	414.0150	35	1	4000	1845.3534	163.5052	18.3046	22.3207	23.3373	24.3375	0
302	5	8	1	2	428.0724	32	1	4000	1845.3534	163.5052	24.3538	28.3701	29.3866	30.3868	0
302	5	9	1	2	451.4069	35	1	4000	1845.3534	163.5052	30.4031	34.4193	35.4359	36.4361	0
302	5	10	1	2	409.1407	32	1	4000	1845.3534	163.5052	36.4524	40.4686	41.4852	42.4854	0
302	5	11	1	2	456.8716	35	1	4000	1845.3534	163.5052	42.5016	46.5180	47.5345	48.5347	0
302	5	12	1	2	391.4274	35	1	4000	1845.3534	163.5052	48.5511	52.5673	53.5839	54.5841	0
302	5	13	1	2	397.8762	32	1	4000	1845.3534	163.5052	54.6004	58.6165	59.6331	60.6333	0
302	5	14	1	2	380.8430	35	1	4000	1845.3534	163.5052	60.6496	64.6658	65.6824	66.6826	0
302	5	15	1	2	378.6539	32	1	4000	1845.3534	163.5052	66.6989	70.7152	71.7317	72.7319	0
302	5	16	1	2	377.9976	35	0	4000	1845.3534	163.5052	72.7482	76.7644	77.7810	78.7812	0
302	5	17	1	2	439.7377	32	1	4000	1845.3534	163.5052	79.8141	83.8302	84.8469	85.8471	0
302	5	18	1	2	574.9750	35	1	4000	1845.3534	163.5052	85.8633	89.8796	90.8962	91.8964	0
302	5	19	1	2	429.4495	35	1	4000	1845.3534	163.5052	91.9127	95.9289	96.9455	97.9457	0
302	5	20	1	2	372.5342	35	1	4000	1845.3534	163.5052	97.9620	101.9782	102.9947	103.9949	0
302	5	21	1	2	402.8020	35	1	4000	1845.3534	163.5052	104.0113	108.0276	109.0441	110.0443	0
302	5	22	1	2	377.1960	35	1	4000	1845.3534	163.5052	110.0604	114.0767	115.0934	116.0935	0
302	5	23	1	2	463.7975	35	1	4000	1845.3534	163.5052	116.1099	120.1261	121.1427	122.1429	0
302	5	24	1	2	446.7658	32	1	4000	1845.3534	163.5052	122.1592	126.1754	127.1919	128.1921	0
302	5	25	1	2	421.3130	32	1	4000	1845.3534	163.5052	128.2085	132.2247	133.2413	134.2415	0
302	5	26	1	2	364.6497	35	1	4000	1845.3534	163.5052	134.2578	138.2740	139.2906	140.2908	0
302	5	27	1	2	363.4786	35	1	4000	1845.3534	163.5052	140.3071	144.3234	145.3399	146.3401	0
302	5	28	1	2	490.1119	35	1	4000	1845.3534	163.5052	146.3565	150.3726	151.3893	152.3895	0
302	5	29	1	2	408.3208	35	1	4000	1845.3534	163.5052	152.4058	156.4219	157.4385	158.4387	0
302	5	30	1	2	447.4718	32	1	4000	1845.3534	163.5052	158.4551	162.4711	163.4878	164.4880	0
302	6	1	1	2	386.8104	35	1	1000	1845.3534	164.4907	 0.0172	 1.0360	 2.0524	 3.0526	0
302	6	2	1	2	481.3719	32	1	1000	1845.3534	164.4907	 3.0690	 4.0855	 5.1021	 6.1023	0
302	6	3	1	2	382.9334	35	1	1000	1845.3534	164.4907	 6.1186	 7.1352	 8.1518	 9.1520	0
302	6	4	1	2	366.3833	35	1	1000	1845.3534	164.4907	 9.1683	10.1849	11.2014	12.2016	0
302	6	5	1	2	412.3397	35	1	1000	1845.3534	164.4907	12.2181	13.2346	14.2511	15.2512	0
302	6	6	1	2	410.9164	32	1	1000	1845.3534	164.4907	15.2676	16.2842	17.3006	18.3008	0
302	6	7	1	2	368.6911	35	1	4000	1845.3534	164.4907	18.3173	22.3335	23.3500	24.3502	0
302	6	8	1	2	488.0275	32	1	4000	1845.3534	164.4907	24.3666	28.3828	29.3994	30.3995	0
302	6	9	1	2	390.6677	35	1	4000	1845.3534	164.4907	30.4159	34.4320	35.4486	36.4488	0
302	6	10	1	2	437.6764	32	1	4000	1845.3534	164.4907	36.4652	40.4814	41.4979	42.4980	0
302	6	11	1	2	483.9640	32	1	4000	1845.3534	164.4907	42.5145	46.5306	47.5472	48.5474	0
302	6	12	1	2	402.8690	35	1	4000	1845.3534	164.4907	48.5637	52.5800	53.5965	54.5967	0
302	6	13	1	2	401.5611	35	1	4000	1845.3534	164.4907	54.6132	58.6293	59.6458	60.6460	0
302	6	14	1	2	440.2771	35	1	4000	1845.3534	164.4907	60.6624	64.6786	65.6951	66.6953	0
302	6	15	1	2	471.1260	35	1	4000	1845.3534	164.4907	66.7116	70.7279	71.7444	72.7446	0
302	6	16	1	2	381.6166	35	1	4000	1845.3534	164.4907	72.7610	76.7772	77.7937	78.7939	0
302	6	17	1	2	396.5241	35	1	4000	1845.3534	164.4907	78.8103	82.8265	83.8431	84.8433	0
302	6	18	1	2	579.0909	32	1	4000	1845.3534	164.4907	84.8596	88.8758	89.8923	90.8925	0
302	6	19	1	2	593.3876	32	1	4000	1845.3534	164.4907	90.9089	94.9251	95.9416	96.9418	0
302	6	20	1	2	416.5681	35	1	4000	1845.3534	164.4907	96.9582	100.9745	101.9909	102.9911	0
302	6	21	1	2	430.9700	32	1	4000	1845.3534	164.4907	103.0074	107.0237	108.0403	109.0405	0
302	6	22	1	2	453.7380	35	1	4000	1845.3534	164.4907	109.0568	113.0730	114.0896	115.0898	0
302	6	23	1	2	404.7298	35	1	4000	1845.3534	164.4907	115.1061	119.1223	120.1388	121.1390	0
302	6	24	1	2	371.4098	35	1	4000	1845.3534	164.4907	121.1554	125.1716	126.1881	127.1884	0
302	6	25	1	2	385.7366	32	1	4000	1845.3534	164.4907	127.2047	131.2208	132.2375	133.2377	0
302	6	26	1	2	408.1073	35	1	4000	1845.3534	164.4907	133.2540	137.2702	138.2867	139.2869	0
302	6	27	1	2	407.4305	35	1	4000	1845.3534	164.4907	139.3033	143.3195	144.3361	145.3362	0
302	6	28	1	2	430.4587	32	1	4000	1845.3534	164.4907	145.3526	149.3688	150.3853	151.3855	0
302	6	29	1	2	404.8231	35	1	4000	1845.3534	164.4907	151.4019	155.4181	156.4346	157.4348	0
302	6	30	1	2	378.7172	35	1	4000	1845.3534	164.4907	157.4512	161.4674	162.4839	163.4841	0
302	7	1	1	3	371.8204	35	1	1000	2474.9137	 0.0019	 0.0108	 1.0273	 2.0437	 3.0443	0
302	7	2	1	3	409.9443	32	1	1000	2474.9137	 0.0019	 3.0604	 4.0770	 5.0935	 6.0940	0
302	7	3	1	3	535.9853	35	1	1000	2474.9137	 0.0019	 6.1101	 7.1267	 8.1432	 9.1437	0
302	7	4	1	3	382.3737	35	1	1000	2474.9137	 0.0019	 9.1598	10.1763	11.1929	12.1933	0
302	7	5	1	3	362.7081	35	1	1000	2474.9137	 0.0019	12.2097	13.2262	14.2428	15.2474	0
302	7	6	1	3	338.4145	35	1	1000	2474.9137	 0.0019	15.2591	16.2756	17.2922	18.2924	0
302	7	7	1	3	457.6521	32	1	4000	2474.9137	 0.0019	18.3088	22.3250	23.3415	24.3417	0
302	7	8	1	3	416.3291	35	1	4000	2474.9137	 0.0019	24.3581	28.3744	29.3910	30.3912	0
302	7	9	1	3	375.0669	35	1	4000	2474.9137	 0.0019	30.4075	34.4237	35.4403	36.4405	0
302	7	10	1	3	453.5491	32	1	4000	2474.9137	 0.0019	36.4569	40.4731	41.4897	42.4899	0
302	7	11	1	3	468.1869	32	1	4000	2474.9137	 0.0019	42.5060	46.5225	47.5390	48.5392	0
302	7	12	1	3	434.3549	32	1	4000	2474.9137	 0.0019	48.5556	52.5718	53.5884	54.5886	0
302	7	13	1	3	433.5051	32	1	4000	2474.9137	 0.0019	54.6049	58.6212	59.6378	60.6380	0
302	7	14	1	3	407.6123	32	1	4000	2474.9137	 0.0019	60.6543	64.6706	65.6871	66.6873	0
302	7	15	1	3	470.9900	32	1	4000	2474.9137	 0.0019	66.7037	70.7199	71.7365	72.7367	0
302	7	16	1	3	404.7909	32	1	4000	2474.9137	 0.0019	72.7530	76.7693	77.7859	78.7861	0
302	7	17	1	3	419.8208	32	1	4000	2474.9137	 0.0019	78.8024	82.8187	83.8352	84.8354	0
302	7	18	1	3	402.0376	35	1	4000	2474.9137	 0.0019	84.8518	88.8680	89.8846	90.8848	0
302	7	19	1	3	400.5839	35	1	4000	2474.9137	 0.0019	90.9011	94.9174	95.9340	96.9342	0
302	7	20	1	3	399.6322	32	1	4000	2474.9137	 0.0019	96.9505	100.9668	101.9833	102.9835	0
302	7	21	1	3	414.8669	35	1	4000	2474.9137	 0.0019	102.9999	107.0161	108.0326	109.0329	0
302	7	22	1	3	389.4637	35	1	4000	2474.9137	 0.0019	109.0493	113.0655	114.0821	115.0823	0
302	7	23	1	3	396.0484	35	1	4000	2474.9137	 0.0019	115.0987	119.1149	120.1314	121.1316	0
302	7	24	1	3	394.6546	35	1	4000	2474.9137	 0.0019	121.1480	125.1642	126.1808	127.1810	0
302	7	25	1	3	393.4259	35	1	4000	2474.9137	 0.0019	127.1974	131.2135	132.2302	133.2304	0
302	7	26	1	3	399.5692	35	1	4000	2474.9137	 0.0019	133.2467	137.2630	138.2796	139.2797	0
302	7	27	1	3	454.2425	32	1	4000	2474.9137	 0.0019	139.2961	143.3123	144.3289	145.3290	0
302	7	28	1	3	388.8775	35	1	4000	2474.9137	 0.0019	145.3455	149.3617	150.3783	151.3785	0
302	7	29	1	3	443.0908	32	1	4000	2474.9137	 0.0019	151.3948	155.4110	156.4276	157.4278	0
302	7	30	1	3	386.1019	35	1	4000	2474.9137	 0.0019	157.4442	161.4604	162.4770	163.4772	0
302	8	1	1	3	381.3040	35	1	1000	2474.9137	163.4786	 0.0169	 1.0334	 2.0500	 3.0502	0
302	8	2	1	3	466.9971	32	1	1000	2474.9137	163.4786	 3.0665	 4.0832	 5.0998	 6.0999	0
302	8	3	1	3	562.1356	32	1	1000	2474.9137	163.4786	 6.1162	 7.1328	 8.1494	 9.1496	0
302	8	4	1	3	448.4801	35	1	1000	2474.9137	163.4786	 9.1659	10.1825	11.1990	12.1992	0
302	8	5	1	3	438.6421	32	1	1000	2474.9137	163.4786	12.2155	13.2321	14.2488	15.2490	0
302	8	6	1	3	637.4060	32	1	1000	2474.9137	163.4786	15.2653	16.2818	17.2984	18.2986	0
302	8	7	1	3	475.1164	35	1	4000	2474.9137	163.4786	18.3149	22.3312	23.3477	24.3479	0
302	8	8	1	3	458.2807	35	1	4000	2474.9137	163.4786	24.3643	28.3806	29.3972	30.3973	0
302	8	9	1	3	416.7557	32	1	4000	2474.9137	163.4786	30.4136	34.4299	35.4465	36.4466	0
302	8	10	1	3	383.0731	35	1	4000	2474.9137	163.4786	36.4631	40.4793	41.4959	42.4961	0
302	8	11	1	3	365.5981	35	1	4000	2474.9137	163.4786	42.5124	46.5287	47.5452	48.5454	0
302	8	12	1	3	356.1526	35	1	4000	2474.9137	163.4786	48.5618	52.5780	53.5946	54.5948	0
302	8	13	1	3	443.8643	32	1	4000	2474.9137	163.4786	54.6111	58.6274	59.6439	60.6442	0
302	8	14	1	3	362.4223	35	1	4000	2474.9137	163.4786	60.6605	64.6767	65.6933	66.6935	0
302	8	15	1	3	363.1374	35	1	4000	2474.9137	163.4786	66.7099	70.7396	71.7562	72.7564	0
302	8	16	1	3	390.4431	35	1	4000	2474.9137	163.4786	72.7759	76.7921	77.8087	78.8089	0
302	8	17	1	3	384.2719	35	1	4000	2474.9137	163.4786	78.8252	82.8416	83.8715	84.8717	0
302	8	18	1	3	467.4051	32	1	4000	2474.9137	163.4786	84.8880	88.9076	89.9241	90.9243	0
302	8	19	1	3	385.5716	35	1	4000	2474.9137	163.4786	90.9407	94.9569	95.9734	96.9736	0
302	8	20	1	3	416.4534	32	1	4000	2474.9137	163.4786	96.9899	101.0063	102.0229	103.0231	0
302	8	21	1	3	423.3655	35	1	4000	2474.9137	163.4786	103.0394	107.0556	108.0722	109.0724	0
302	8	22	1	3	389.5883	35	1	4000	2474.9137	163.4786	109.0887	113.1051	114.1216	115.1218	0
302	8	23	1	3	404.0130	35	1	4000	2474.9137	163.4786	115.1381	119.1544	120.1709	121.1711	0
302	8	24	1	3	338.5813	35	1	4000	2474.9137	163.4786	121.1875	125.2037	126.2203	127.2205	0
302	8	25	1	3	418.0137	32	1	4000	2474.9137	163.4786	127.2368	131.2531	132.2697	133.2699	0
302	8	26	1	3	451.6471	32	1	4000	2474.9137	163.4786	133.2862	137.3153	138.3319	139.3321	0
302	8	27	1	3	390.6856	35	1	4000	2474.9137	163.4786	139.3522	143.3685	144.3851	145.3853	0
302	8	28	1	3	456.3600	32	1	4000	2474.9137	163.4786	145.4016	149.4179	150.4471	151.4473	0
302	8	29	1	3	407.1340	32	1	4000	2474.9137	163.4786	151.4637	155.4799	156.4964	157.4966	0
302	8	30	1	3	389.8084	32	1	4000	2474.9137	163.4786	157.5130	161.5292	162.5457	163.5459	0
302	9	1	1	3	423.8905	32	1	1000	2474.9137	163.5473	 0.0222	 1.0387	 2.0552	 3.0554	0
302	9	2	1	3	497.4307	32	1	1000	2474.9137	163.5473	 3.0759	 4.0925	 5.1090	 6.1092	0
302	9	3	1	3	376.4489	35	1	1000	2474.9137	163.5473	 6.1256	 7.1422	 8.1587	 9.1589	0
302	9	4	1	3	406.8067	32	1	1000	2474.9137	163.5473	 9.1752	10.1919	11.2085	12.2087	0
302	9	5	1	3	413.2946	32	1	1000	2474.9137	163.5473	12.2250	13.2415	14.2581	15.2583	0
302	9	6	1	3	459.5993	32	1	1000	2474.9137	163.5473	15.2746	16.2912	17.3078	18.3079	0
302	9	7	1	3	513.3810	32	1	4000	2474.9137	163.5473	18.3243	22.3406	23.3572	24.3573	0
302	9	8	1	3	463.9294	32	1	4000	2474.9137	163.5473	24.3738	28.3899	29.4064	30.4066	0
302	9	9	1	3	462.9121	32	1	4000	2474.9137	163.5473	30.4230	34.4393	35.4559	36.4561	0
302	9	10	1	3	397.7044	35	1	4000	2474.9137	163.5473	36.4725	40.4887	41.5053	42.5055	0
302	9	11	1	3	380.1003	35	1	4000	2474.9137	163.5473	42.5218	46.5380	47.5546	48.5548	0
302	9	12	1	3	371.2070	35	1	4000	2474.9137	163.5473	48.5712	52.5874	53.6040	54.6042	0
302	9	13	1	3	425.9382	32	1	4000	2474.9137	163.5473	54.6205	58.6369	59.6534	60.6536	0
302	9	14	1	3	372.3380	32	1	4000	2474.9137	163.5473	60.6699	64.6862	65.7145	66.7147	0
302	9	15	1	3	387.0713	32	1	4000	2474.9137	163.5473	66.7311	70.7473	71.7638	72.7640	0
302	9	16	1	3	385.7719	35	1	4000	2474.9137	163.5473	72.7804	76.7967	77.8131	78.8133	0
302	9	17	1	3	424.0940	32	1	4000	2474.9137	163.5473	78.8297	82.8459	83.8625	84.8627	0
302	9	18	1	3	334.6437	35	1	4000	2474.9137	163.5473	84.8791	88.8953	89.9117	90.9119	0
302	9	19	1	3	373.7144	35	1	4000	2474.9137	163.5473	90.9283	94.9445	95.9611	96.9613	0
302	9	20	1	3	356.9525	35	1	4000	2474.9137	163.5473	96.9776	100.9938	102.0104	103.0106	0
302	9	21	1	3	427.4109	32	1	4000	2474.9137	163.5473	103.0269	107.0431	108.0597	109.0598	0
302	9	22	1	3	402.0908	32	1	4000	2474.9137	163.5473	109.0762	113.0924	114.1090	115.1092	0
302	9	23	1	3	400.9822	35	1	4000	2474.9137	163.5473	115.1253	119.1417	120.1583	121.1585	0
302	9	24	1	3	431.7267	32	1	4000	2474.9137	163.5473	121.1749	125.1910	126.2076	127.2077	0
302	9	25	1	3	382.1542	35	1	4000	2474.9137	163.5473	127.2241	131.2404	132.2569	133.2570	0
302	9	26	1	3	364.3992	35	1	4000	2474.9137	163.5473	133.2735	137.2896	138.3062	139.3064	0
302	9	27	1	3	363.3272	35	1	4000	2474.9137	163.5473	139.3227	143.3390	144.3555	145.3557	0
302	9	28	1	3	377.9539	35	1	4000	2474.9137	163.5473	145.3721	149.3883	150.4048	151.4050	0
302	9	29	1	3	320.9803	35	1	4000	2474.9137	163.5473	151.4214	155.4376	156.4541	157.4543	0
302	9	30	1	3	391.2209	32	1	4000	2474.9137	163.5473	157.4705	161.4868	162.5034	163.5036	0
302	10	1	1	4	424.1825	32	1	1000	3115.8501	 0.0017	 0.0140	 1.0378	 2.0544	 3.0551	0
302	10	2	1	4	341.0742	35	1	1000	3115.8501	 0.0017	 3.0802	 4.0968	 5.1135	 6.1140	0
302	10	3	1	4	404.0109	32	1	1000	3115.8501	 0.0017	 6.1299	 7.1465	 8.1630	 9.1635	0
302	10	4	1	4	346.7537	35	1	1000	3115.8501	 0.0017	 9.1796	10.2034	11.2200	12.2205	0
302	10	5	1	4	317.7218	35	1	1000	3115.8501	 0.0017	12.2369	13.2627	14.2792	15.2841	0
302	10	6	1	4	390.1707	32	1	1000	3115.8501	 0.0017	15.3029	16.3195	17.3361	18.3363	0
302	10	7	1	4	371.7236	35	1	4000	3115.8501	 0.0017	18.3526	22.3688	23.3945	24.3947	0
302	10	8	1	4	371.2723	35	1	4000	3115.8501	 0.0017	24.4111	28.4273	29.4438	30.4440	0
302	10	9	1	4	385.4122	35	1	4000	3115.8501	 0.0017	30.4604	34.4767	35.4931	36.4933	0
302	10	10	1	4	408.5033	32	1	4000	3115.8501	 0.0017	36.5097	40.5259	41.5424	42.5426	0
302	10	11	1	4	414.5942	32	1	4000	3115.8501	 0.0017	42.5590	46.5752	47.5917	48.5919	0
302	10	12	1	4	365.8035	35	1	4000	3115.8501	 0.0017	48.6083	52.6245	53.6411	54.6413	0
302	10	13	1	4	372.3459	35	1	4000	3115.8501	 0.0017	54.6576	58.6738	59.6904	60.6906	0
302	10	14	1	4	379.5606	32	1	4000	3115.8501	 0.0017	60.7070	64.7231	65.7396	66.7398	0
302	10	15	1	4	441.5853	32	1	4000	3115.8501	 0.0017	66.7562	70.7724	71.7889	72.7891	0
302	10	16	1	4	368.7628	32	1	4000	3115.8501	 0.0017	72.8056	76.8218	77.8382	78.8384	0
302	10	17	1	4	375.3321	35	1	4000	3115.8501	 0.0017	78.8548	82.8710	83.8876	84.8878	0
302	10	18	1	4	333.9635	35	1	4000	3115.8501	 0.0017	84.9041	88.9203	89.9369	90.9371	0
302	10	19	1	4	436.6265	32	1	4000	3115.8501	 0.0017	90.9534	94.9696	95.9862	96.9864	0
302	10	20	1	4	387.5976	35	1	4000	3115.8501	 0.0017	97.0027	101.0189	102.0354	103.0356	0
302	10	21	1	4	401.5333	32	1	4000	3115.8501	 0.0017	103.0520	107.0682	108.0848	109.0849	0
302	10	22	1	4	400.7468	32	1	4000	3115.8501	 0.0017	109.1013	113.1175	114.1341	115.1344	0
302	10	23	1	4	375.0588	32	1	4000	3115.8501	 0.0017	115.1507	119.1668	120.1834	121.1836	0
302	10	24	1	4	414.4990	32	1	4000	3115.8501	 0.0017	121.2000	125.2162	126.2327	127.2329	0
302	10	25	1	4	372.5788	32	1	4000	3115.8501	 0.0017	127.2493	131.2654	132.2820	133.2822	0
302	10	26	1	4	411.1013	32	1	4000	3115.8501	 0.0017	133.2985	137.3147	138.3313	139.3315	0
302	10	27	1	4	401.6619	35	1	4000	3115.8501	 0.0017	139.3478	143.3640	144.3806	145.3808	0
302	10	28	1	4	392.7672	32	1	4000	3115.8501	 0.0017	145.3971	149.4134	150.4299	151.4301	0
302	10	29	1	4	399.4966	32	1	4000	3115.8501	 0.0017	151.4465	155.4626	156.4792	157.4793	0
302	10	30	1	4	406.4052	32	1	4000	3115.8501	 0.0017	157.4957	161.5119	162.5286	163.5287	0
302	11	1	1	4	432.5338	32	1	1000	3115.8501	163.5302	 0.0134	 1.0301	 2.0467	 3.0469	0
302	11	2	1	4	423.5011	32	1	1000	3115.8501	163.5302	 3.0632	 4.0798	 5.0964	 6.0965	0
302	11	3	1	4	397.8224	35	1	1000	3115.8501	163.5302	 6.1130	 7.1295	 8.1461	 9.1463	0
302	11	4	1	4	364.1973	35	1	1000	3115.8501	163.5302	 9.1626	10.1792	11.2033	12.2035	0
302	11	5	1	4	387.0679	32	1	1000	3115.8501	163.5302	12.2198	13.2364	14.2528	15.2530	0
302	11	6	1	4	417.0221	32	1	1000	3115.8501	163.5302	15.2695	16.2860	17.3025	18.3027	0
302	11	7	1	4	487.7110	32	1	4000	3115.8501	163.5302	18.3191	22.3354	23.3518	24.3519	0
302	11	8	1	4	470.5063	32	1	4000	3115.8501	163.5302	24.3683	28.3846	29.4011	30.4013	0
302	11	9	1	4	421.3317	32	1	4000	3115.8501	163.5302	30.4177	34.4339	35.4504	36.4506	0
302	11	10	1	4	380.2714	35	1	4000	3115.8501	163.5302	36.4670	40.4832	41.4998	42.5000	0
302	11	11	1	4	346.5254	35	1	4000	3115.8501	163.5302	42.5163	46.5325	47.5491	48.5493	0
302	11	12	1	4	377.2334	35	1	4000	3115.8501	163.5302	48.5656	52.5818	53.5983	54.5985	0
302	11	13	1	4	408.1990	32	1	4000	3115.8501	163.5302	54.6149	58.6311	59.6476	60.6478	0
302	11	14	1	4	374.8254	35	1	4000	3115.8501	163.5302	60.6642	64.6804	65.6970	66.6972	0
302	11	15	1	4	348.5955	35	1	4000	3115.8501	163.5302	66.7135	70.7297	71.7463	72.7465	0
302	11	16	1	4	339.4375	35	1	4000	3115.8501	163.5302	72.7628	76.7790	77.7955	78.7957	0
302	11	17	1	4	394.5298	35	1	4000	3115.8501	163.5302	78.8121	82.8282	83.8449	84.8451	0
302	11	18	1	4	401.5399	32	1	4000	3115.8501	163.5302	84.8613	88.8776	89.8941	90.8943	0
302	11	19	1	4	783.7615	35	1	4000	3115.8501	163.5302	90.9107	94.9269	95.9435	96.9437	0
302	11	20	1	4	342.6756	35	1	4000	3115.8501	163.5302	96.9600	100.9761	101.9928	102.9929	0
302	11	21	1	4	373.0568	35	1	4000	3115.8501	163.5302	103.0093	107.0255	108.0421	109.0423	0
302	11	22	1	4	371.9879	35	1	4000	3115.8501	163.5302	109.0585	113.0749	114.0913	115.0915	0
302	11	23	1	4	450.4909	32	1	4000	3115.8501	163.5302	115.1080	119.1241	120.1407	121.1409	0
302	11	24	1	4	361.8290	35	1	4000	3115.8501	163.5302	121.1572	125.1734	126.1900	127.1902	0
302	11	25	1	4	424.4049	32	1	4000	3115.8501	163.5302	127.2065	131.2228	132.2393	133.2395	0
302	11	26	1	4	407.5024	32	1	4000	3115.8501	163.5302	133.2558	137.2720	138.2885	139.2887	0
302	11	27	1	4	405.5567	32	1	4000	3115.8501	163.5302	139.3051	143.3213	144.3379	145.3381	0
302	11	28	1	4	308.0234	35	1	4000	3115.8501	163.5302	145.3544	149.3707	150.3872	151.3874	0
302	11	29	1	4	474.7850	35	1	4000	3115.8501	163.5302	151.4037	155.4199	156.4365	157.4367	0
302	11	30	1	4	354.1981	35	1	4000	3115.8501	163.5302	157.4530	161.4693	162.4858	163.4860	0
302	12	1	1	4	336.5129	35	1	1000	3115.8501	163.4885	 0.0138	 1.0304	 2.0469	 3.0471	0
302	12	2	1	4	318.8338	35	1	1000	3115.8501	163.4885	 3.0636	 4.0801	 5.0966	 6.0968	0
302	12	3	1	4	412.6088	32	1	1000	3115.8501	163.4885	 6.1132	 7.1298	 8.1463	 9.1465	0
302	12	4	1	4	397.9982	35	1	1000	3115.8501	163.4885	 9.1629	10.1852	11.2017	12.2019	0
302	12	5	1	4	420.0521	32	1	1000	3115.8501	163.4885	12.2183	13.2349	14.2515	15.2517	0
302	12	6	1	4	338.7149	35	1	1000	3115.8501	163.4885	15.2679	16.2845	17.3011	18.3013	0
302	12	7	1	4	384.6698	35	1	4000	3115.8501	163.4885	18.3177	22.3337	23.3504	24.3506	0
302	12	8	1	4	368.1677	35	1	4000	3115.8501	163.4885	24.3669	28.3831	29.3997	30.3998	0
302	12	9	1	4	358.2165	35	1	4000	3115.8501	163.4885	30.4162	34.4324	35.4489	36.4490	0
302	12	10	1	4	437.4725	32	1	4000	3115.8501	163.4885	36.4655	40.4817	41.4984	42.4985	0
302	12	11	1	4	395.9365	35	1	4000	3115.8501	163.4885	42.5148	46.5310	47.5476	48.5478	0
302	12	12	1	4	434.5676	32	1	4000	3115.8501	163.4885	48.5641	52.5804	53.5969	54.5971	0
302	12	13	1	4	513.7309	32	1	4000	3115.8501	163.4885	54.6134	58.6296	59.6462	60.6464	0
302	12	14	1	4	367.4341	35	1	4000	3115.8501	163.4885	60.6627	64.6789	65.6955	66.6957	0
302	12	15	1	4	454.7052	32	1	4000	3115.8501	163.4885	66.7120	70.7282	71.7448	72.7450	0
302	12	16	1	4	461.0485	32	1	4000	3115.8501	163.4885	72.7613	76.7776	77.7941	78.7943	0
302	12	17	1	4	404.0363	35	1	4000	3115.8501	163.4885	78.8106	82.8269	83.8434	84.8436	0
302	12	18	1	4	419.2771	32	1	4000	3115.8501	163.4885	84.8599	88.8762	89.8927	90.8929	0
302	12	19	1	4	433.9860	35	1	4000	3115.8501	163.4885	90.9092	94.9254	95.9420	96.9422	0
302	12	20	1	4	376.6342	35	1	4000	3115.8501	163.4885	96.9586	100.9747	101.9913	102.9915	0
302	12	21	1	4	390.8747	35	1	4000	3115.8501	163.4885	103.0079	107.0241	108.0406	109.0408	0
302	12	22	1	4	421.6923	32	1	4000	3115.8501	163.4885	109.0571	113.0733	114.0899	115.0901	0
302	12	23	1	4	372.6340	35	1	4000	3115.8501	163.4885	115.1065	119.1226	120.1392	121.1394	0
302	12	24	1	4	410.9039	32	1	4000	3115.8501	163.4885	121.1558	125.1720	126.1885	127.1887	0
302	12	25	1	4	401.6135	35	1	4000	3115.8501	163.4885	127.2050	131.2212	132.2378	133.2380	0
302	12	26	1	4	432.0977	32	1	4000	3115.8501	163.4885	133.2543	137.2705	138.2872	139.2874	0
302	12	27	1	4	382.8811	35	1	4000	3115.8501	163.4885	139.3037	143.3198	144.3364	145.3366	0
302	12	28	1	4	429.4767	32	1	4000	3115.8501	163.4885	145.3530	149.3692	150.3857	151.3859	0
302	12	29	1	4	348.2857	35	1	4000	3115.8501	163.4885	151.4023	155.4184	156.4351	157.4352	0
302	12	30	1	4	411.4096	32	1	4000	3115.8501	163.4885	157.4516	161.4678	162.4843	163.4845	0
302	13	1	1	5	544.7889	32	1	1000	3825.7863	 0.0017	 0.0122	 1.0288	 2.0453	 3.0460	0
302	13	2	1	5	407.2936	32	1	1000	3825.7863	 0.0017	 3.0618	 4.0784	 5.0950	 6.0954	0
302	13	3	1	5	366.2426	35	1	1000	3825.7863	 0.0017	 6.1115	 7.1280	 8.1446	 9.1451	0
302	13	4	1	5	364.1895	35	1	1000	3825.7863	 0.0017	 9.1612	10.1777	11.1942	12.1947	0
302	13	5	1	5	384.2055	32	1	1000	3825.7863	 0.0017	12.2111	13.2274	14.2442	15.2490	0
302	13	6	1	5	369.6826	35	1	1000	3825.7863	 0.0017	15.2604	16.2769	17.2935	18.2937	0
302	13	7	1	5	399.9272	32	1	4000	3825.7863	 0.0017	18.3100	22.3262	23.3428	24.3430	0
302	13	8	1	5	422.1468	32	1	4000	3825.7863	 0.0017	24.3594	28.3755	29.3921	30.3923	0
302	13	9	1	5	373.7106	35	1	4000	3825.7863	 0.0017	30.4086	34.4248	35.4414	36.4416	0
302	13	10	1	5	419.6409	32	1	4000	3825.7863	 0.0017	36.4579	40.4742	41.4907	42.4909	0
302	13	11	1	5	379.0358	35	1	4000	3825.7863	 0.0017	42.5073	46.5234	47.5399	48.5401	0
302	13	12	1	5	377.1591	35	1	4000	3825.7863	 0.0017	48.5566	52.5727	53.5893	54.5895	0
302	13	13	1	5	408.5814	35	1	4000	3825.7863	 0.0017	54.6057	58.6220	59.6386	60.6388	0
302	13	14	1	5	407.3589	35	1	4000	3825.7863	 0.0017	60.6551	64.6714	65.6879	66.6881	0
302	13	15	1	5	421.7511	32	1	4000	3825.7863	 0.0017	66.7045	70.7207	71.7372	72.7374	0
302	13	16	1	5	379.7662	35	1	4000	3825.7863	 0.0017	72.7538	76.7699	77.7865	78.7867	0
302	13	17	1	5	338.5602	35	1	4000	3825.7863	 0.0017	78.8031	82.8193	83.8358	84.8360	0
302	13	18	1	5	353.4137	35	1	4000	3825.7863	 0.0017	84.8525	88.8686	89.8851	90.8853	0
302	13	19	1	5	368.7250	35	1	4000	3825.7863	 0.0017	90.9017	94.9179	95.9344	96.9345	0
302	13	20	1	5	415.5105	35	1	4000	3825.7863	 0.0017	96.9509	100.9672	101.9837	102.9839	0
302	13	21	1	5	365.7909	35	1	4000	3825.7863	 0.0017	103.0003	107.0165	108.0331	109.0332	0
302	13	22	1	5	404.8759	35	1	4000	3825.7863	 0.0017	109.0496	113.0658	114.0824	115.0826	0
302	13	23	1	5	371.3722	35	1	4000	3825.7863	 0.0017	115.0989	119.1151	120.1316	121.1318	0
302	13	24	1	5	346.3936	35	1	4000	3825.7863	 0.0017	121.1482	125.1643	126.1809	127.1811	0
302	13	25	1	5	424.1689	32	1	4000	3825.7863	 0.0017	127.1974	131.2137	132.2302	133.2304	0
302	13	26	1	5	407.4069	35	1	4000	3825.7863	 0.0017	133.2468	137.2630	138.2795	139.2797	0
302	13	27	1	5	421.4630	35	1	4000	3825.7863	 0.0017	139.2961	143.3123	144.3288	145.3290	0
302	13	28	1	5	372.5801	35	1	4000	3825.7863	 0.0017	145.3453	149.3615	150.3780	151.3782	0
302	13	29	1	5	427.7055	32	1	4000	3825.7863	 0.0017	151.3946	155.4107	156.4273	157.4275	0
302	13	30	1	5	450.2044	32	1	4000	3825.7863	 0.0017	157.4438	161.4601	162.4765	163.4766	0
302	14	1	1	5	452.2489	32	1	1000	3825.7863	163.4802	 0.0024	 1.0187	 2.0352	 3.0353	0
302	14	2	1	5	402.9305	32	1	1000	3825.7863	163.4802	 3.0517	 4.0683	 5.0848	 6.0850	0
302	14	3	1	5	432.4987	32	1	1000	3825.7863	163.4802	 6.1014	 7.1180	 8.1346	 9.1348	0
302	14	4	1	5	463.2499	35	1	1000	3825.7863	163.4802	 9.1510	10.1677	11.1842	12.1844	0
302	14	5	1	5	340.9256	35	1	1000	3825.7863	163.4802	12.2008	13.2173	14.2339	15.2341	0
302	14	6	1	5	443.8548	32	1	1000	3825.7863	163.4802	15.2505	16.2671	17.2835	18.2836	0
302	14	7	1	5	394.3697	35	1	4000	3825.7863	163.4802	18.3002	22.3164	23.3329	24.3331	0
302	14	8	1	5	473.3852	32	1	4000	3825.7863	163.4802	24.3494	28.3659	29.3823	30.3825	0
302	14	9	1	5	424.1713	32	1	4000	3825.7863	163.4802	30.3988	34.4150	35.4316	36.4318	0
302	14	10	1	5	366.6968	35	1	4000	3825.7863	163.4802	36.4481	40.4644	41.4809	42.4811	0
302	14	11	1	5	397.2263	35	1	4000	3825.7863	163.4802	42.4974	46.5136	47.5302	48.5304	0
302	14	12	1	5	427.7488	32	1	4000	3825.7863	163.4802	48.5467	52.5630	53.5795	54.5797	0
302	14	13	1	5	362.5424	35	1	4000	3825.7863	163.4802	54.5961	58.6124	59.6290	60.6292	0
302	14	14	1	5	360.9581	35	1	4000	3825.7863	163.4802	60.6455	64.6617	65.6784	66.6786	0
302	14	15	1	5	375.1787	35	1	4000	3825.7863	163.4802	66.6950	70.7112	71.7277	72.7279	0
302	14	16	1	5	397.6206	35	1	4000	3825.7863	163.4802	72.7443	76.7606	77.7771	78.7773	0
302	14	17	1	5	380.3155	35	1	4000	3825.7863	163.4802	78.7937	82.8100	83.8265	84.8266	0
302	14	18	1	5	403.6708	35	1	4000	3825.7863	163.4802	84.8431	88.8594	89.8759	90.8761	0
302	14	19	1	5	498.0382	32	1	4000	3825.7863	163.4802	90.8925	94.9087	95.9253	96.9255	0
302	14	20	1	5	424.5226	32	1	4000	3825.7863	163.4802	96.9418	100.9581	101.9746	102.9748	0
302	14	21	1	5	431.3898	32	1	4000	3825.7863	163.4802	102.9912	107.0074	108.0240	109.0242	0
302	14	22	1	5	445.5191	32	1	4000	3825.7863	163.4802	109.0406	113.0568	114.0734	115.0736	0
302	14	23	1	5	412.3766	32	1	4000	3825.7863	163.4802	115.0900	119.1062	120.1227	121.1229	0
302	14	24	1	5	395.5456	32	1	4000	3825.7863	163.4802	121.1393	125.1556	126.1721	127.1723	0
302	14	25	1	5	409.2758	35	1	4000	3825.7863	163.4802	127.1887	131.2049	132.2215	133.2217	0
302	14	26	1	5	455.9374	32	1	4000	3825.7863	163.4802	133.2380	137.2543	138.2709	139.2710	0
302	14	27	1	5	383.1608	35	1	4000	3825.7863	163.4802	139.2874	143.3036	144.3202	145.3204	0
302	14	28	1	5	421.5125	32	1	4000	3825.7863	163.4802	145.3367	149.3530	150.3696	151.3698	0
302	14	29	1	5	388.3594	35	1	4000	3825.7863	163.4802	151.3862	155.4024	156.4190	157.4192	0
302	14	30	1	5	403.3667	32	1	4000	3825.7863	163.4802	157.4355	161.4518	162.4683	163.4685	0
302	15	1	1	5	439.3062	32	1	1000	3825.7863	163.4699	 0.0147	 1.0313	 2.0478	 3.0480	0
302	15	2	1	5	413.5165	35	1	1000	3825.7863	163.4699	 3.0643	 4.0809	 5.0975	 6.0977	0
302	15	3	1	5	436.6127	32	1	1000	3825.7863	163.4699	 6.1140	 7.1306	 8.1471	 9.1472	0
302	15	4	1	5	418.1871	32	1	1000	3825.7863	163.4699	 9.1637	10.1802	11.1968	12.1970	0
302	15	5	1	5	368.7183	35	1	1000	3825.7863	163.4699	12.2133	13.2299	14.2465	15.2467	0
302	15	6	1	5	559.5578	32	1	1000	3825.7863	163.4699	15.2631	16.2796	17.2962	18.2964	0
302	15	7	1	5	406.2373	32	1	4000	3825.7863	163.4699	18.3128	22.3290	23.3456	24.3458	0
302	15	8	1	5	387.8079	32	1	4000	3825.7863	163.4699	24.3621	28.3783	29.3949	30.3951	0
302	15	9	1	5	418.6667	32	1	4000	3825.7863	163.4699	30.4115	34.4277	35.4443	36.4445	0
302	15	10	1	5	385.3479	32	1	4000	3825.7863	163.4699	36.4609	40.4771	41.4938	42.4940	0
302	15	11	1	5	431.7040	32	1	4000	3825.7863	163.4699	42.5102	46.5265	47.5431	48.5433	0
302	15	12	1	5	406.6156	32	1	4000	3825.7863	163.4699	48.5596	52.5758	53.5924	54.5925	0
302	15	13	1	5	405.7324	32	1	4000	3825.7863	163.4699	54.6090	58.6252	59.6417	60.6419	0
302	15	14	1	5	364.0085	35	1	4000	3825.7863	163.4699	60.6583	64.6745	65.6911	66.6913	0
302	15	15	1	5	450.2634	32	1	4000	3825.7863	163.4699	66.7076	70.7240	71.7405	72.7407	0
302	15	16	1	5	392.9528	32	1	4000	3825.7863	163.4699	72.7570	76.7733	77.7898	78.7900	0
302	15	17	1	5	432.4593	35	1	4000	3825.7863	163.4699	78.8064	82.8226	83.8392	84.8394	0
302	15	18	1	5	406.9129	32	1	4000	3825.7863	163.4699	84.8558	88.8720	89.8886	90.8888	0
302	15	19	1	5	437.2024	32	1	4000	3825.7863	163.4699	90.9051	94.9213	95.9379	96.9381	0
302	15	20	1	5	419.9924	35	1	4000	3825.7863	163.4699	96.9545	100.9708	101.9873	102.9875	0
302	15	21	1	5	386.7790	35	1	4000	3825.7863	163.4699	103.0039	107.0201	108.0367	109.0369	0
302	15	22	1	5	417.6126	32	1	4000	3825.7863	163.4699	109.0533	113.0695	114.0861	115.0862	0
302	15	23	1	5	416.2627	32	1	4000	3825.7863	163.4699	115.1026	119.1188	120.1354	121.1355	0
302	15	24	1	5	389.9098	35	1	4000	3825.7863	163.4699	121.1519	125.1682	126.1848	127.1850	0
302	15	25	1	5	421.2700	32	1	4000	3825.7863	163.4699	127.2013	131.2176	132.2341	133.2343	0
302	15	26	1	5	451.3827	32	1	4000	3825.7863	163.4699	133.2507	137.2669	138.2835	139.2837	0
302	15	27	1	5	362.4329	35	1	4000	3825.7863	163.4699	139.3000	143.3162	144.3329	145.3331	0
302	15	28	1	5	424.4987	32	1	4000	3825.7863	163.4699	145.3494	149.3657	150.3823	151.3825	0
302	15	29	1	5	399.8583	35	1	4000	3825.7863	163.4699	151.3988	155.4151	156.4316	157.4318	0
302	15	30	1	5	414.7495	32	1	4000	3825.7863	163.4699	157.4481	161.4644	162.4809	163.4811	0
302	16	1	1	6	394.1465	35	1	1000	4441.4262	 0.0019	 0.0202	 1.0368	 2.0533	 3.0540	0
302	16	2	1	6	420.3644	32	1	1000	4441.4262	 0.0019	 3.0698	 4.0986	 5.1151	 6.1156	0
302	16	3	1	6	397.8270	35	1	1000	4441.4262	 0.0019	 6.1361	 7.1526	 8.1692	 9.1697	0
302	16	4	1	6	336.3432	35	1	1000	4441.4262	 0.0019	 9.1858	10.2146	11.2311	12.2316	0
302	16	5	1	6	359.3297	35	1	1000	4441.4262	 0.0019	12.2521	13.2689	14.2855	15.2906	0
302	16	6	1	6	324.7901	35	1	1000	4441.4262	 0.0019	15.3018	16.3183	17.3470	18.3472	0
302	16	7	1	6	418.4059	32	1	4000	4441.4262	 0.0019	18.3636	22.3797	23.3963	24.3965	0
302	16	8	1	6	521.1457	32	1	4000	4441.4262	 0.0019	24.4128	28.4291	29.4457	30.4459	0
302	16	9	1	6	392.7796	35	1	4000	4441.4262	 0.0019	30.4622	34.4783	35.4949	36.4951	0
302	16	10	1	6	406.6733	32	1	4000	4441.4262	 0.0019	36.5115	40.5277	41.5442	42.5444	0
302	16	11	1	6	397.4441	32	1	4000	4441.4262	 0.0019	42.5608	46.5770	47.5936	48.5937	0
302	16	12	1	6	396.4197	35	1	4000	4441.4262	 0.0019	48.6102	52.6263	53.6428	54.6430	0
302	16	13	1	6	386.9326	35	1	4000	4441.4262	 0.0019	54.6594	58.6757	59.6922	60.6924	0
302	16	14	1	6	386.0518	32	1	4000	4441.4262	 0.0019	60.7087	64.7249	65.7414	66.7416	0
302	16	15	1	6	416.2256	35	1	4000	4441.4262	 0.0019	66.7580	70.7743	71.7908	72.7910	0
302	16	16	1	6	423.7256	32	1	4000	4441.4262	 0.0019	72.8073	76.8236	77.8401	78.8403	0
302	16	17	1	6	373.5189	35	1	4000	4441.4262	 0.0019	78.8567	82.8729	83.8894	84.8896	0
302	16	18	1	6	364.4037	35	1	4000	4441.4262	 0.0019	84.9059	88.9222	89.9387	90.9389	0
302	16	19	1	6	435.3319	32	1	4000	4441.4262	 0.0019	90.9553	94.9715	95.9879	96.9881	0
302	16	20	1	6	386.0474	35	1	4000	4441.4262	 0.0019	97.0045	101.0206	102.0372	103.0374	0
302	16	21	1	6	424.2687	32	1	4000	4441.4262	 0.0019	103.0538	107.0700	108.0865	109.0867	0
302	16	22	1	6	382.9003	32	1	4000	4441.4262	 0.0019	109.1032	113.1193	114.1358	115.1361	0
302	16	23	1	6	405.6142	32	1	4000	4441.4262	 0.0019	115.1524	119.1686	120.1852	121.1854	0
302	16	24	1	6	348.5393	35	1	4000	4441.4262	 0.0019	121.2017	125.2179	126.2345	127.2347	0
302	16	25	1	6	379.0031	32	1	4000	4441.4262	 0.0019	127.2510	131.2672	132.2838	133.2839	0
302	16	26	1	6	345.9067	35	1	4000	4441.4262	 0.0019	133.3004	137.3166	138.3330	139.3332	0
302	16	27	1	6	400.9552	32	1	4000	4441.4262	 0.0019	139.3497	143.3658	144.3824	145.3826	0
302	16	28	1	6	391.2582	32	1	4000	4441.4262	 0.0019	145.3990	149.4151	150.4317	151.4319	0
302	16	29	1	6	414.7066	32	1	4000	4441.4262	 0.0019	151.4483	155.4644	156.4810	157.4812	0
302	16	30	1	6	404.3915	35	1	4000	4441.4262	 0.0019	157.4976	161.5137	162.5304	163.5305	0
302	17	1	1	6	400.4944	32	1	1000	4441.4262	163.5320	 0.0172	 1.0338	 2.0503	 3.0505	0
302	17	2	1	6	391.7235	35	0	1000	4441.4262	163.5320	 3.0669	 4.0834	 5.1000	 6.1003	0
302	17	3	1	6	406.4650	35	1	1000	4441.4262	163.5320	 7.1392	 8.1558	 9.1724	10.1726	0
302	17	4	1	6	493.1429	32	1	1000	4441.4262	163.5320	10.1889	11.2055	12.2220	13.2222	0
302	17	5	1	6	483.4847	32	1	1000	4441.4262	163.5320	13.2386	14.2552	15.2717	16.2719	0
302	17	6	1	6	601.8750	32	1	1000	4441.4262	163.5320	16.2883	17.3049	18.3214	19.3216	0
302	17	7	1	6	552.3808	32	1	4000	4441.4262	163.5320	19.3379	23.3542	24.3708	25.3710	0
302	17	8	1	6	374.7609	35	1	4000	4441.4262	163.5320	25.3873	29.4035	30.4201	31.4203	0
302	17	9	1	6	413.2937	35	1	4000	4441.4262	163.5320	31.4367	35.4529	36.4695	37.4697	0
302	17	10	1	6	388.4518	35	1	4000	4441.4262	163.5320	37.4859	41.5023	42.5188	43.5190	0
302	17	11	1	6	379.2019	35	1	4000	4441.4262	163.5320	43.5355	47.5517	48.5682	49.5684	0
302	17	12	1	6	433.8144	32	1	4000	4441.4262	163.5320	49.5848	53.6010	54.6176	55.6178	0
302	17	13	1	6	392.5638	35	1	4000	4441.4262	163.5320	55.6341	59.6504	60.6669	61.6671	0
302	17	14	1	6	526.3517	32	1	4000	4441.4262	163.5320	61.6835	65.6998	66.7163	67.7165	0
302	17	15	1	6	373.8829	35	1	4000	4441.4262	163.5320	67.7329	71.7491	72.7657	73.7659	0
302	17	16	1	6	378.8190	35	1	4000	4441.4262	163.5320	73.7823	77.8083	78.8248	79.8250	0
302	17	17	1	6	425.1938	32	1	4000	4441.4262	163.5320	79.8414	83.8575	84.8741	85.8743	0
302	17	18	1	6	328.2780	35	1	4000	4441.4262	163.5320	85.8905	89.9068	90.9234	91.9236	0
302	17	19	1	6	406.6347	32	1	4000	4441.4262	163.5320	91.9399	95.9559	96.9727	97.9729	0
302	17	20	1	6	525.6338	32	1	4000	4441.4262	163.5320	97.9892	102.0054	103.0220	104.0222	0
302	17	21	1	6	380.3586	32	1	4000	4441.4262	163.5320	104.0385	108.0548	109.0712	110.0714	0
302	17	22	1	6	379.0605	35	1	4000	4441.4262	163.5320	110.0879	114.1041	115.1205	116.1207	0
302	17	23	1	6	377.5817	35	1	4000	4441.4262	163.5320	116.1371	120.1534	121.1699	122.1701	0
302	17	24	1	6	400.2559	32	1	4000	4441.4262	163.5320	122.1864	126.2027	127.2192	128.2194	0
302	17	25	1	6	398.8729	32	1	4000	4441.4262	163.5320	128.2357	132.2519	133.2684	134.2685	0
302	17	26	1	6	429.4303	35	1	4000	4441.4262	163.5320	134.2851	138.3012	139.3178	140.3180	0
302	17	27	1	6	380.0451	32	1	4000	4441.4262	163.5320	140.3344	144.3505	145.3671	146.3673	0
302	17	28	1	6	410.9254	32	1	4000	4441.4262	163.5320	146.3837	150.3999	151.4164	152.4166	0
302	17	29	1	6	417.6812	35	1	4000	4441.4262	163.5320	152.4329	156.4491	157.4657	158.4659	0
302	17	30	1	6	479.6124	32	1	4000	4441.4262	163.5320	158.4822	162.4985	163.5150	164.5152	0
302	18	1	1	6	395.8362	32	1	1000	4441.4262	164.5166	 0.0177	 1.0430	 2.0596	 3.0598	0
302	18	2	1	6	602.0998	32	1	1000	4441.4262	164.5166	 3.0761	 4.0927	 5.1092	 6.1094	0
302	18	3	1	6	368.9241	35	1	1000	4441.4262	164.5166	 6.1259	 7.1424	 8.1589	 9.1590	0
302	18	4	1	6	390.6665	35	1	1000	4441.4262	164.5166	 9.1754	10.1920	11.2084	12.2086	0
302	18	5	1	6	405.8471	32	1	1000	4441.4262	164.5166	12.2251	13.2415	14.2582	15.2584	0
302	18	6	1	6	347.2988	35	1	1000	4441.4262	164.5166	15.2747	16.2913	17.3079	18.3081	0
302	18	7	1	6	546.6700	32	1	4000	4441.4262	164.5166	18.3244	22.3405	23.3572	24.3573	0
302	18	8	1	6	416.7018	32	1	4000	4441.4262	164.5166	24.3737	28.3900	29.4065	30.4066	0
302	18	9	1	6	423.5654	35	1	4000	4441.4262	164.5166	30.4230	34.4392	35.4556	36.4558	0
302	18	10	1	6	343.1181	35	1	4000	4441.4262	164.5166	36.4723	40.4885	41.5050	42.5052	0
302	18	11	1	6	445.5056	32	0	4000	4441.4262	164.5166	42.5216	46.5379	47.5544	48.5546	0
302	18	12	1	6	491.7182	32	1	4000	4441.4262	164.5166	49.5875	53.6036	54.6202	55.6204	0
302	18	13	1	6	466.5837	32	1	4000	4441.4262	164.5166	55.6367	59.6530	60.6695	61.6696	0
302	18	14	1	6	392.8168	35	1	4000	4441.4262	164.5166	61.6860	65.7022	66.7188	67.7190	0
302	18	15	1	6	423.6771	35	1	4000	4441.4262	164.5166	67.7353	71.7515	72.7681	73.7683	0
302	18	16	1	6	469.7512	32	1	4000	4441.4262	164.5166	73.7846	77.8009	78.8174	79.8176	0
302	18	17	1	6	396.6309	35	1	4000	4441.4262	164.5166	79.8340	83.8501	84.8667	85.8669	0
302	18	18	1	6	459.5932	32	1	4000	4441.4262	164.5166	85.8833	89.8995	90.9160	91.9162	0
302	18	19	1	6	442.3873	32	1	4000	4441.4262	164.5166	91.9325	95.9487	96.9654	97.9655	0
302	18	20	1	6	577.2065	32	1	4000	4441.4262	164.5166	97.9818	101.9980	103.0146	104.0148	0
302	18	21	1	6	391.4274	35	1	4000	4441.4262	164.5166	104.0312	108.0473	109.0639	110.0641	0
302	18	22	1	6	398.2716	32	1	4000	4441.4262	164.5166	110.0805	114.0966	115.1132	116.1134	0
302	18	23	1	6	476.6753	32	1	4000	4441.4262	164.5166	116.1298	120.1460	121.1625	122.1627	0
302	18	24	1	6	411.8837	32	1	4000	4441.4262	164.5166	122.1790	126.1954	127.2119	128.2121	0
302	18	25	1	6	418.6908	35	1	4000	4441.4262	164.5166	128.2284	132.2445	133.2611	134.2612	0
302	18	26	1	6	368.8673	35	1	4000	4441.4262	164.5166	134.2776	138.2939	139.3105	140.3107	0
302	18	27	1	6	439.7854	32	1	4000	4441.4262	164.5166	140.3270	144.3432	145.3597	146.3599	0
302	18	28	1	6	390.1038	35	1	4000	4441.4262	164.5166	146.3763	150.3925	151.4090	152.4092	0
302	18	29	1	6	365.5304	35	1	4000	4441.4262	164.5166	152.4256	156.4418	157.4583	158.4584	0
302	18	30	1	6	435.7434	32	1	4000	4441.4262	164.5166	158.4749	162.4911	163.5076	164.5078	0
302	19	1	1	7	401.1888	35	1	1000	5060.6177	 0.0023	 0.0146	 1.0369	 2.0535	 3.0542	0
302	19	2	1	7	446.9558	32	1	1000	5060.6177	 0.0023	 3.0809	 4.1032	 5.1196	 6.1201	0
302	19	3	1	7	333.0797	35	1	1000	5060.6177	 0.0023	 6.1363	 7.1528	 8.1694	 9.1699	0
302	19	4	1	7	410.4946	35	1	1000	5060.6177	 0.0023	 9.1859	10.2135	11.2357	12.2362	0
302	19	5	1	7	391.7563	35	1	1000	5060.6177	 0.0023	12.2525	13.2691	14.2857	15.2904	0
302	19	6	1	7	431.9306	32	1	1000	5060.6177	 0.0023	15.3019	16.3184	17.3350	18.3352	0
302	19	7	1	7	398.6361	35	1	4000	5060.6177	 0.0023	18.3514	22.3677	23.3842	24.3844	0
302	19	8	1	7	429.4606	32	1	4000	5060.6177	 0.0023	24.4008	28.4170	29.4335	30.4337	0
302	19	9	1	7	396.2347	35	1	4000	5060.6177	 0.0023	30.4501	34.4663	35.4829	36.4831	0
302	19	10	1	7	362.9949	35	1	4000	5060.6177	 0.0023	36.4994	40.5156	41.5322	42.5324	0
302	19	11	1	7	345.8435	35	1	4000	5060.6177	 0.0023	42.5487	46.5649	47.5815	48.5817	0
302	19	12	1	7	400.7513	35	1	4000	5060.6177	 0.0023	48.5980	52.6143	53.6307	54.6309	0
302	19	13	1	7	399.2855	32	1	4000	5060.6177	 0.0023	54.6472	58.6635	59.6801	60.6802	0
302	19	14	1	7	341.6243	35	1	4000	5060.6177	 0.0023	60.6966	64.7128	65.7293	66.7295	0
302	19	15	1	7	396.4993	35	1	4000	5060.6177	 0.0023	66.7459	70.7621	71.7786	72.7788	0
302	19	16	1	7	387.3379	35	1	4000	5060.6177	 0.0023	72.7953	76.8114	77.8280	78.8282	0
302	19	17	1	7	522.0377	32	1	4000	5060.6177	 0.0023	78.8445	82.8607	83.8773	84.8774	0
302	19	18	1	7	440.6755	32	1	4000	5060.6177	 0.0023	84.8939	88.9100	89.9266	90.9268	0
302	19	19	1	7	374.7628	35	1	4000	5060.6177	 0.0023	90.9431	94.9593	95.9759	96.9761	0
302	19	20	1	7	365.5375	35	1	4000	5060.6177	 0.0023	96.9925	101.0087	102.0252	103.0254	0
302	19	21	1	7	412.7249	32	1	4000	5060.6177	 0.0023	103.0417	107.0579	108.0744	109.0746	0
302	19	22	1	7	530.7286	32	0	4000	5060.6177	 0.0023	109.0910	113.1072	114.1238	115.1241	0
302	19	23	1	7	617.0800	35	0	4000	5060.6177	 0.0023	116.1570	120.1731	121.1896	122.1898	0
302	19	24	1	7	599.6297	32	1	4000	5060.6177	 0.0023	123.2228	127.2389	128.2555	129.2557	0
302	19	25	1	7	445.7048	32	1	4000	5060.6177	 0.0023	129.2721	133.2882	134.3048	135.3050	0
302	19	26	1	7	396.4028	35	1	4000	5060.6177	 0.0023	135.3214	139.3375	140.3541	141.3543	0
302	19	27	1	7	459.2297	32	1	4000	5060.6177	 0.0023	141.3707	145.3869	146.4034	147.4036	0
302	19	28	1	7	450.2404	32	1	4000	5060.6177	 0.0023	147.4200	151.4362	152.4527	153.4529	0
302	19	29	1	7	376.7424	35	1	4000	5060.6177	 0.0023	153.4693	157.4855	158.5019	159.5020	0
302	19	30	1	7	376.0624	35	1	4000	5060.6177	 0.0023	159.5186	163.5347	164.5513	165.5515	0
302	20	1	1	7	470.4324	32	1	1000	5060.6177	165.5529	 0.0162	 1.0329	 2.0494	 3.0496	0
302	20	2	1	7	452.4273	32	1	1000	5060.6177	165.5529	 3.0659	 4.0825	 5.0990	 6.0992	0
302	20	3	1	7	387.0368	35	1	1000	5060.6177	165.5529	 6.1156	 7.1321	 8.1486	 9.1487	0
302	20	4	1	7	400.4487	35	1	1000	5060.6177	165.5529	 9.1652	10.1817	11.1984	12.1986	0
302	20	5	1	7	351.1159	35	1	1000	5060.6177	165.5529	12.2150	13.2314	14.2480	15.2482	0
302	20	6	1	7	445.9033	32	1	1000	5060.6177	165.5529	15.2645	16.2811	17.2976	18.2977	0
302	20	7	1	7	411.8937	35	1	4000	5060.6177	165.5529	18.3142	22.3304	23.3469	24.3471	0
302	20	8	1	7	379.2469	35	1	4000	5060.6177	165.5529	24.3635	28.3797	29.3962	30.3964	0
302	20	9	1	7	410.0355	35	1	4000	5060.6177	165.5529	30.4128	34.4291	35.4455	36.4456	0
302	20	10	1	7	336.8693	35	1	4000	5060.6177	165.5529	36.4621	40.4782	41.4949	42.4951	0
302	20	11	1	7	383.7942	35	1	4000	5060.6177	165.5529	42.5113	46.5276	47.5441	48.5443	0
302	20	12	1	7	509.6998	32	1	4000	5060.6177	165.5529	48.5607	52.5769	53.5934	54.5936	0
302	20	13	1	7	388.9196	32	0	4000	5060.6177	165.5529	54.6100	58.6262	59.6426	60.6428	0
302	20	14	1	7	450.5354	35	1	4000	5060.6177	165.5529	61.6758	65.6921	66.7086	67.7087	0
302	20	15	1	7	474.0290	32	1	4000	5060.6177	165.5529	67.7252	71.7413	72.7578	73.7580	0
302	20	16	1	7	399.6184	35	1	4000	5060.6177	165.5529	73.7744	77.7906	78.8072	79.8074	0
302	20	17	1	7	423.0472	32	1	4000	5060.6177	165.5529	79.8237	83.8398	84.8565	85.8567	0
302	20	18	1	7	429.3033	32	1	4000	5060.6177	165.5529	85.8730	89.8893	90.9058	91.9060	0
302	20	19	1	7	444.4096	32	1	4000	5060.6177	165.5529	91.9223	95.9386	96.9551	97.9553	0
302	20	20	1	7	394.4688	35	1	4000	5060.6177	165.5529	97.9717	101.9879	103.0044	104.0045	0
302	20	21	1	7	377.7398	35	1	4000	5060.6177	165.5529	104.0210	108.0372	109.0537	110.0539	0
302	20	22	1	7	440.2065	32	1	4000	5060.6177	165.5529	110.0702	114.0865	115.1030	116.1032	0
302	20	23	1	7	359.4272	35	1	4000	5060.6177	165.5529	116.1195	120.1358	121.1523	122.1525	0
302	20	24	1	7	381.9905	35	1	4000	5060.6177	165.5529	122.1689	126.1851	127.2016	128.2018	0
302	20	25	1	7	452.8003	32	1	4000	5060.6177	165.5529	128.2182	132.2344	133.2509	134.2511	0
302	20	26	1	7	475.2383	32	1	4000	5060.6177	165.5529	134.2675	138.2836	139.3002	140.3004	0
302	20	27	1	7	377.9216	35	1	4000	5060.6177	165.5529	140.3168	144.3330	145.3495	146.3497	0
302	20	28	1	7	520.0783	35	1	4000	5060.6177	165.5529	146.3660	150.3823	151.3988	152.3990	0
302	20	29	1	7	374.9647	35	1	4000	5060.6177	165.5529	152.4154	156.4316	157.4481	158.4483	0
302	20	30	1	7	494.1858	32	1	4000	5060.6177	165.5529	158.4647	162.4809	163.4975	164.4976	0
302	21	1	1	7	473.4662	32	1	1000	5060.6177	164.4991	 0.0183	 1.0369	 2.0535	 3.0537	0
302	21	2	1	7	999.7583	1	0	1000	5060.6177	164.4991	 3.0700	 4.0867	 5.1032	 6.1041	0
302	21	3	1	7	533.6853	32	1	1000	5060.6177	164.4991	 7.1362	 8.1529	 9.1694	10.1696	0
302	21	4	1	7	412.5015	35	1	1000	5060.6177	164.4991	10.1859	11.2025	12.2190	13.2192	0
302	21	5	1	7	330.9517	35	1	1000	5060.6177	164.4991	13.2356	14.2522	15.2687	16.2689	0
302	21	6	1	7	369.4411	35	1	1000	5060.6177	164.4991	16.2853	17.3018	18.3182	19.3184	0
302	21	7	1	7	479.6326	32	1	4000	5060.6177	164.4991	19.3349	23.3511	24.3676	25.3678	0
302	21	8	1	7	414.3067	32	1	4000	5060.6177	164.4991	25.3842	29.4003	30.4170	31.4172	0
302	21	9	1	7	364.6592	35	1	4000	5060.6177	164.4991	31.4334	35.4497	36.4662	37.4665	0
302	21	10	1	7	403.9562	32	1	4000	5060.6177	164.4991	37.4828	41.4990	42.5155	43.5158	0
302	21	11	1	7	466.4068	35	1	4000	5060.6177	164.4991	43.5321	47.5483	48.5648	49.5650	0
302	21	12	1	7	449.4122	32	1	4000	5060.6177	164.4991	49.5814	53.5976	54.6142	55.6144	0
302	21	13	1	7	407.5097	35	1	4000	5060.6177	164.4991	55.6307	59.6469	60.6635	61.6637	0
302	21	14	1	7	407.1221	32	1	4000	5060.6177	164.4991	61.6800	65.6962	66.7128	67.7130	0
302	21	15	1	7	397.0367	35	1	4000	5060.6177	164.4991	67.7293	71.7455	72.7620	73.7622	0
302	21	16	1	7	427.3343	32	1	4000	5060.6177	164.4991	73.7786	77.7948	78.8114	79.8116	0
302	21	17	1	7	426.1119	32	1	4000	5060.6177	164.4991	79.8279	83.8442	84.8607	85.8609	0
302	21	18	1	7	393.7253	35	1	4000	5060.6177	164.4991	85.8772	89.8934	90.9100	91.9102	0
302	21	19	1	7	400.1666	35	1	4000	5060.6177	164.4991	91.9265	95.9427	96.9593	97.9595	0
302	21	20	1	7	399.2966	35	1	4000	5060.6177	164.4991	97.9758	101.9920	103.0085	104.0087	0
302	21	21	1	7	341.4249	35	1	4000	5060.6177	164.4991	104.0251	108.0413	109.0579	110.0581	0
302	21	22	1	7	372.5342	35	1	4000	5060.6177	164.4991	110.0743	114.0906	115.1072	116.1074	0
302	21	23	1	7	459.1449	32	1	4000	5060.6177	164.4991	116.1237	120.1399	121.1565	122.1567	0
302	21	24	1	7	408.9396	32	1	4000	5060.6177	164.4991	122.1730	126.1892	127.2058	128.2060	0
302	21	25	1	7	400.6051	32	1	4000	5060.6177	164.4991	128.2223	132.2385	133.2550	134.2552	0
302	21	26	1	7	390.7772	35	1	4000	5060.6177	164.4991	134.2716	138.2879	139.3043	140.3045	0
302	21	27	1	7	389.5409	35	1	4000	5060.6177	164.4991	140.3209	144.3371	145.3537	146.3539	0
302	21	28	1	7	411.7921	35	1	4000	5060.6177	164.4991	146.3702	150.3865	151.4030	152.4032	0
302	21	29	1	7	395.2662	35	1	4000	5060.6177	164.4991	152.4195	156.4357	157.4523	158.4525	0
302	21	30	1	7	386.2430	32	1	4000	5060.6177	164.4991	158.4688	162.4850	163.5016	164.5018	0
302	22	1	1	8	430.0955	35	1	1000	5668.6985	 0.0020	 0.0160	 1.0325	 2.0490	 3.0497	0
302	22	2	1	8	403.7618	35	1	1000	5668.6985	 0.0020	 3.0656	 4.0821	 5.0987	 6.0992	0
302	22	3	1	8	474.2256	32	1	1000	5668.6985	 0.0020	 6.1153	 7.1318	 8.1484	 9.1489	0
302	22	4	1	8	344.8559	35	1	1000	5668.6985	 0.0020	 9.1650	10.1815	11.1981	12.1986	0
302	22	5	1	8	405.8540	32	1	1000	5668.6985	 0.0020	12.2149	13.2315	14.2479	15.2520	0
302	22	6	1	8	398.0777	32	1	1000	5668.6985	 0.0020	15.2643	16.2809	17.2974	18.2977	0
302	22	7	1	8	404.8274	35	1	4000	5668.6985	 0.0020	18.3140	22.3302	23.3468	24.3470	0
302	22	8	1	8	403.3464	35	1	4000	5668.6985	 0.0020	24.3633	28.3796	29.3961	30.3963	0
302	22	9	1	8	697.4409	32	1	4000	5668.6985	 0.0020	30.4127	34.4290	35.4455	36.4457	0
302	22	10	1	8	400.5475	32	1	4000	5668.6985	 0.0020	36.4621	40.4783	41.4949	42.4951	0
302	22	11	1	8	398.4470	32	1	4000	5668.6985	 0.0020	42.5115	46.5277	47.5442	48.5444	0
302	22	12	1	8	405.6683	35	1	4000	5668.6985	 0.0020	48.5608	52.5770	53.5936	54.5938	0
302	22	13	1	8	363.9782	35	1	4000	5668.6985	 0.0020	54.6102	58.6264	59.6429	60.6430	0
302	22	14	1	8	403.0095	32	1	4000	5668.6985	 0.0020	60.6595	64.6758	65.6923	66.6925	0
302	22	15	1	8	385.3387	32	1	4000	5668.6985	 0.0020	66.7089	70.7251	71.7417	72.7419	0
302	22	16	1	8	431.5716	32	1	4000	5668.6985	 0.0020	72.7583	76.7745	77.7911	78.7913	0
302	22	17	1	8	383.1598	35	1	4000	5668.6985	 0.0020	78.8076	82.8239	83.8405	84.8407	0
302	22	18	1	8	389.6638	32	1	4000	5668.6985	 0.0020	84.8571	88.8732	89.8898	90.8900	0
302	22	19	1	8	444.1086	32	1	4000	5668.6985	 0.0020	90.9065	94.9226	95.9391	96.9393	0
302	22	20	1	8	402.4226	32	1	4000	5668.6985	 0.0020	96.9557	100.9720	101.9885	102.9887	0
302	22	21	1	8	353.6078	35	1	4000	5668.6985	 0.0020	103.0051	107.0213	108.0379	109.0381	0
302	22	22	1	8	471.9841	32	1	4000	5668.6985	 0.0020	109.0545	113.0707	114.0873	115.0875	0
302	22	23	1	8	438.6336	32	1	4000	5668.6985	 0.0020	115.1039	119.1201	120.1366	121.1368	0
302	22	24	1	8	348.8656	35	1	4000	5668.6985	 0.0020	121.1532	125.1694	126.1860	127.1862	0
302	22	25	1	8	459.9916	32	1	4000	5668.6985	 0.0020	127.2026	131.2188	132.2354	133.2356	0
302	22	26	1	8	450.0679	35	1	4000	5668.6985	 0.0020	133.2519	137.2682	138.2848	139.2850	0
302	22	27	1	8	376.8262	35	1	4000	5668.6985	 0.0020	139.3013	143.3175	144.3341	145.3343	0
302	22	28	1	8	423.9226	32	1	4000	5668.6985	 0.0020	145.3507	149.3669	150.3835	151.3837	0
302	22	29	1	8	374.4729	35	1	4000	5668.6985	 0.0020	151.4000	155.4163	156.4328	157.4330	0
302	22	30	1	8	436.6157	32	1	4000	5668.6985	 0.0020	157.4493	161.4656	162.4823	163.4825	0
302	23	1	1	8	395.6492	35	1	1000	5668.6985	163.4839	 0.0183	 1.0350	 2.0515	 3.0516	0
302	23	2	1	8	353.7158	35	1	1000	5668.6985	163.4839	 3.0680	 4.0846	 5.1011	 6.1013	0
302	23	3	1	8	432.6247	32	1	1000	5668.6985	163.4839	 6.1177	 7.1343	 8.1507	 9.1509	0
302	23	4	1	8	399.0443	35	1	1000	5668.6985	163.4839	 9.1675	10.1839	11.2005	12.2007	0
302	23	5	1	8	333.3279	35	1	1000	5668.6985	163.4839	12.2171	13.2336	14.2503	15.2505	0
302	23	6	1	8	347.7536	35	1	1000	5668.6985	163.4839	15.2667	16.2833	17.2999	18.3000	0
302	23	7	1	8	465.9600	32	1	4000	5668.6985	163.4839	18.3164	22.3327	23.3492	24.3494	0
302	23	8	1	8	416.7858	35	1	4000	5668.6985	163.4839	24.3658	28.3820	29.3986	30.3988	0
302	23	9	1	8	455.4937	32	1	4000	5668.6985	163.4839	30.4151	34.4313	35.4480	36.4481	0
302	23	10	1	8	454.4287	32	1	4000	5668.6985	163.4839	36.4645	40.4808	41.4973	42.4975	0
302	23	11	1	8	540.7656	32	1	4000	5668.6985	163.4839	42.5139	46.5301	47.5467	48.5469	0
302	23	12	1	8	419.2187	32	1	4000	5668.6985	163.4839	48.5633	52.5795	53.5960	54.5962	0
302	23	13	1	8	409.9019	35	1	4000	5668.6985	163.4839	54.6127	58.6289	59.6454	60.6456	0
302	23	14	1	8	376.6838	35	1	4000	5668.6985	163.4839	60.6620	64.6782	65.6948	66.6950	0
302	23	15	1	8	407.3789	32	1	4000	5668.6985	163.4839	66.7113	70.7276	71.7442	72.7444	0
302	23	16	1	8	382.3089	35	1	4000	5668.6985	163.4839	72.7607	76.7769	77.7935	78.7937	0
302	23	17	1	8	356.1000	35	1	4000	5668.6985	163.4839	78.8101	82.8263	83.8429	84.8431	0
302	23	18	1	8	355.6195	35	1	4000	5668.6985	163.4839	84.8595	88.8757	89.8922	90.8924	0
302	23	19	1	8	401.2203	35	1	4000	5668.6985	163.4839	90.9088	94.9251	95.9416	96.9418	0
302	23	20	1	8	408.5496	32	1	4000	5668.6985	163.4839	96.9582	100.9744	101.9909	102.9911	0
302	23	21	1	8	431.1910	32	1	4000	5668.6985	163.4839	103.0075	107.0238	108.0404	109.0406	0
302	23	22	1	8	414.0530	35	1	4000	5668.6985	163.4839	109.0569	113.0732	114.0897	115.0899	0
302	23	23	1	8	444.1917	32	1	4000	5668.6985	163.4839	115.1063	119.1225	120.1391	121.1393	0
302	23	24	1	8	434.7417	32	1	4000	5668.6985	163.4839	121.1557	125.1719	126.1885	127.1886	0
302	23	25	1	8	441.8600	32	1	4000	5668.6985	163.4839	127.2050	131.2213	132.2379	133.2381	0
302	23	26	1	8	384.3424	35	1	4000	5668.6985	163.4839	133.2544	137.2706	138.2872	139.2874	0
302	23	27	1	8	390.6035	32	1	4000	5668.6985	163.4839	139.3037	143.3200	144.3365	145.3367	0
302	23	28	1	8	365.4808	32	1	4000	5668.6985	163.4839	145.3532	149.3693	150.3860	151.3862	0
302	23	29	1	8	364.3626	35	1	4000	5668.6985	163.4839	151.4025	155.4187	156.4354	157.4356	0
302	23	30	1	8	378.8510	35	1	4000	5668.6985	163.4839	157.4518	161.4681	162.4846	163.4848	0
302	24	1	1	8	403.9090	32	1	1000	5668.6985	163.4862	 0.0174	 1.0339	 2.0505	 3.0507	0
302	24	2	1	8	402.9304	32	1	1000	5668.6985	163.4862	 3.0670	 4.0835	 5.1002	 6.1004	0
302	24	3	1	8	345.3632	35	1	1000	5668.6985	163.4862	 6.1167	 7.1332	 8.1498	 9.1500	0
302	24	4	1	8	398.9446	35	1	1000	5668.6985	163.4862	 9.1663	10.1829	11.1995	12.1997	0
302	24	5	1	8	357.5080	35	1	1000	5668.6985	163.4862	12.2160	13.2326	14.2492	15.2493	0
302	24	6	1	8	364.2368	35	1	1000	5668.6985	163.4862	15.2657	16.2823	17.2988	18.2990	0
302	24	7	1	8	378.5726	35	1	4000	5668.6985	163.4862	18.3155	22.3316	23.3483	24.3485	0
302	24	8	1	8	449.0740	32	1	4000	5668.6985	163.4862	24.3648	28.3810	29.3976	30.3978	0
302	24	9	1	8	399.8968	32	1	4000	5668.6985	163.4862	30.4141	34.4304	35.4470	36.4472	0
302	24	10	1	8	345.9287	35	1	4000	5668.6985	163.4862	36.4635	40.4920	41.5086	42.5088	0
302	24	11	1	8	344.5748	35	1	4000	5668.6985	163.4862	42.5251	46.5414	47.5577	48.5579	0
302	24	12	1	8	411.1324	32	1	4000	5668.6985	163.4862	48.5789	52.5951	53.6117	54.6119	0
302	24	13	1	8	353.7134	35	1	4000	5668.6985	163.4862	54.6283	58.6445	59.6612	60.6614	0
302	24	14	1	8	336.5453	35	1	4000	5668.6985	163.4862	60.6777	64.6939	65.7105	66.7107	0
302	24	15	1	8	430.6326	32	1	4000	5668.6985	163.4862	66.7270	70.7432	71.7598	72.7600	0
302	24	16	1	8	413.9510	32	1	4000	5668.6985	163.4862	72.7764	76.7925	77.8092	78.8094	0
302	24	17	1	8	380.5006	35	1	4000	5668.6985	163.4862	78.8257	82.8420	83.8586	84.8588	0
302	24	18	1	8	410.7605	32	1	4000	5668.6985	163.4862	84.8752	88.8914	89.9080	90.9082	0
302	24	19	1	8	409.2113	32	1	4000	5668.6985	163.4862	90.9244	94.9408	95.9573	96.9575	0
302	24	20	1	8	360.4870	35	1	4000	5668.6985	163.4862	96.9738	100.9901	102.0066	103.0069	0
302	24	21	1	8	359.1857	35	1	4000	5668.6985	163.4862	103.0232	107.0395	108.0561	109.0563	0
302	24	22	1	8	341.8794	35	1	4000	5668.6985	163.4862	109.0726	113.0888	114.1054	115.1056	0
302	24	23	1	8	379.3726	35	1	4000	5668.6985	163.4862	115.1219	119.1382	120.1548	121.1550	0
302	24	24	1	8	394.8157	35	1	4000	5668.6985	163.4862	121.1713	125.1875	126.2041	127.2043	0
302	24	25	1	8	433.7570	32	1	4000	5668.6985	163.4862	127.2206	131.2370	132.2535	133.2537	0
302	24	26	1	8	399.5139	35	1	4000	5668.6985	163.4862	133.2701	137.2863	138.3028	139.3030	0
302	24	27	1	8	382.5590	35	1	4000	5668.6985	163.4862	139.3195	143.3356	144.3522	145.3524	0
302	24	28	1	8	412.6481	32	1	4000	5668.6985	163.4862	145.3687	149.3850	150.4016	151.4018	0
302	24	29	1	8	396.2390	32	1	4000	5668.6985	163.4862	151.4181	155.4344	156.4509	157.4511	0
302	24	30	1	8	370.3792	35	1	4000	5668.6985	163.4862	157.4675	161.4837	162.5003	163.5005	0
