SUBID	BLOCK	TRIAL	REP	RUNID	RT	RESP	ACC	RSIJIT	EV_START	EV_BLOCK	EV_TRIAL	EV_RETRIEVAL	EV_PROBE	EV_RESP	EV_BLEND
987	1	1	1	1	533.6774	56	1	800	1220562.0024	 0.0033	 0.0104	 0.8277	 1.5450	 2.0806	0
987	1	2	1	1	512.7066	29	1	800	1220562.0024	 0.0033	 2.0955	 2.9128	 3.6302	 4.1440	0
987	1	3	1	1	540.0504	56	1	800	1220562.0024	 0.0033	 4.1638	 4.9812	 5.6985	 6.2397	0
987	1	4	1	1	487.2224	56	1	800	1220562.0024	 0.0033	 6.2492	 7.0663	 7.7836	 8.2720	0
987	1	5	1	1	362.5595	29	0	800	1220562.0024	 0.0033	 8.2842	 9.1015	 9.8188	10.1881	0
987	1	6	1	1	522.4783	56	1	800	1220562.0024	 0.0033	 0.0140	 0.8313	 1.5485	 2.0720	0
987	1	7	1	1	699.8439	1	0	800	1220562.0024	 0.0033	 2.0824	 2.8996	 3.6170	 4.3180	0
987	1	8	1	1	367.4750	56	1	800	1220562.0024	 0.0033	 0.0230	 0.8403	 1.5597	 1.9280	0
987	1	9	1	1	459.5874	56	1	800	1220562.0024	 0.0033	 1.9412	 2.7586	 3.4759	 3.9362	0
987	1	10	1	1	699.8084	1	0	800	1220562.0024	 0.0033	 3.9433	 4.7603	 5.4776	 6.1779	0
987	1	11	1	1	554.7078	29	1	800	1220562.0024	 0.0033	 0.0141	 0.8314	 1.5488	 2.1042	0
987	1	12	1	1	564.9047	56	1	800	1220562.0024	 0.0033	 2.1159	 2.9332	 3.6505	 4.2161	0
987	2	1	1	1	517.6165	56	1	800	1220562.0024	 4.2191	 0.0026	 0.8203	 1.5376	 2.0560	0
987	2	2	1	1	465.1476	29	1	800	1220562.0024	 4.2191	 2.0714	 2.8888	 3.6059	 4.0725	0
987	2	3	1	1	415.1163	29	1	800	1220562.0024	 4.2191	 4.0896	 4.9070	 5.6243	 6.0401	0
987	2	4	1	1	422.3788	29	1	800	1220562.0024	 4.2191	 6.0581	 6.8753	 7.5927	 8.0158	0
987	2	5	1	1	414.0992	56	0	800	1220562.0024	 4.2191	 8.0263	 8.8436	 9.5609	 9.9758	0
987	2	6	1	1	465.3102	56	1	800	1220562.0024	 4.2191	 0.0231	 0.8405	 1.5577	 2.0237	0
987	2	7	1	1	455.0682	56	1	800	1220562.0024	 4.2191	 2.0415	 2.8588	 3.5761	 4.0319	0
987	2	8	1	1	517.2961	29	1	800	1220562.0024	 4.2191	 4.0433	 4.8605	 5.5777	 6.0958	0
987	2	9	1	1	489.2516	56	1	800	1220562.0024	 4.2191	 6.1118	 6.9288	 7.6461	 8.1361	0
987	2	10	1	1	389.9263	29	1	800	1220562.0024	 4.2191	 8.1465	 8.9639	 9.6812	10.0719	0
987	2	11	1	1	415.0739	56	1	800	1220562.0024	 4.2191	10.0811	10.8988	11.6160	12.0318	0
987	2	12	1	1	358.9874	29	1	800	1220562.0024	 4.2191	12.0497	12.8671	13.5843	13.9441	0
987	2	13	1	1	513.0613	56	1	800	1220562.0024	 4.2191	13.9513	14.7687	15.4859	15.9999	0
987	2	14	1	1	484.7398	56	1	800	1220562.0024	 4.2191	16.0198	16.8370	17.5544	18.0399	0
987	2	15	1	1	393.9617	29	1	800	1220562.0024	 4.2191	18.0548	18.8721	19.5894	19.9841	0
987	2	16	1	1	418.0877	56	1	800	1220562.0024	 4.2191	20.0064	20.8237	21.5410	21.9599	0
987	2	17	1	1	570.0642	29	1	800	1220562.0024	 4.2191	21.9748	22.7920	23.5093	24.0801	0
987	2	18	1	1	435.6114	29	1	800	1220562.0024	 4.2191	24.0931	24.9104	25.6277	26.0641	0
987	2	19	1	1	634.2793	29	1	800	1220562.0024	 4.2191	26.0781	26.8955	27.6127	28.2476	0
987	2	20	1	1	633.4207	56	1	800	1220562.0024	 4.2191	28.2633	29.0806	29.7979	30.4321	0
987	2	21	1	1	416.0539	56	1	800	1220562.0024	 4.2191	30.4484	31.2658	31.9831	32.3999	0
987	2	22	1	1	432.3298	29	1	800	1220562.0024	 4.2191	32.4168	33.2340	33.9513	34.3843	0
987	2	23	1	1	462.8381	29	0	800	1220562.0024	 4.2191	34.4017	35.2191	35.9363	36.4002	0
987	2	24	1	1	446.8635	56	1	800	1220562.0024	 4.2191	 0.0177	 0.8350	 1.5524	 2.0000	0
987	2	25	1	1	629.4443	56	1	800	1220562.0024	 4.2191	 2.0194	 2.8367	 3.5541	 4.1842	0
987	2	26	1	1	572.2325	29	1	800	1220562.0024	 4.2191	 4.2045	 5.0218	 5.7392	 6.3121	0
987	2	27	1	1	493.7981	56	1	800	1220562.0024	 4.2191	 6.3229	 7.1403	 7.8575	 8.3521	0
987	2	28	1	1	370.7900	29	0	800	1220562.0024	 4.2191	 8.3589	 9.1753	 9.8926	10.2640	0
987	2	29	1	1	699.6514	1	0	800	1220562.0024	 4.2191	 0.0181	 0.8355	 1.5527	 2.2530	0
987	2	30	1	1	501.4858	29	1	800	1220562.0024	 4.2191	 0.0191	 0.8364	 1.5537	 2.0559	0
987	3	1	1	1	481.7448	56	1	800	1220562.0024	 2.0583	 0.0147	 0.8320	 1.5493	 2.0319	0
987	3	2	1	1	390.9402	56	1	800	1220562.0024	 2.0583	 2.0499	 2.8672	 3.5844	 3.9760	0
987	3	3	1	1	559.7459	29	1	800	1220562.0024	 2.0583	 3.9866	 4.8021	 5.5193	 6.0798	0
987	3	4	1	1	450.2976	29	1	800	1220562.0024	 2.0583	 6.0862	 6.9039	 7.6212	 8.0722	0
987	3	5	1	1	699.6874	1	0	800	1220562.0024	 2.0583	 8.0882	 8.9055	 9.6228	10.3230	0
987	3	6	1	1	442.5393	29	0	800	1220562.0024	 2.0583	 0.0139	 0.8313	 1.5486	 1.9918	0
987	3	7	1	1	552.7587	56	1	800	1220562.0024	 2.0583	 0.0160	 0.8333	 1.5507	 2.1042	0
987	3	8	1	1	314.8378	56	1	800	1220562.0024	 2.0583	 2.1179	 2.9352	 3.6524	 3.9679	0
987	3	9	1	1	366.9391	56	0	800	1220562.0024	 2.0583	 3.9861	 4.8034	 5.5206	 5.8883	0
987	3	10	1	1	699.7796	1	0	800	1220562.0024	 2.0583	 0.0294	 0.8469	 1.5640	 2.2645	0
987	3	11	1	1	351.1664	56	1	800	1220562.0024	 2.0583	 0.0101	 0.8274	 1.5445	 1.8964	0
987	3	12	1	1	489.3646	29	1	800	1220562.0024	 2.0583	 1.9115	 2.7289	 3.4461	 3.9362	0
SUBID	BLOCK	TRIAL	REP	RUNID	RT	RESP	ACC	RSIJIT	EV_START	EV_BLOCK	EV_TRIAL	EV_RETRIEVAL	EV_PROBE	EV_RESP	EV_BLEND
987	4	1	1	2	435.4953	29	1	800	1220785.8813	 0.0034	 0.0115	 0.8289	 1.5461	 1.9895	0
987	4	2	1	2	411.3141	29	1	800	1220785.8813	 0.0034	 2.0129	 2.8303	 3.5476	 3.9608	0
987	4	3	1	2	491.0179	29	1	800	1220785.8813	 0.0034	 3.9812	 4.7986	 5.5159	 6.0081	0
987	4	4	1	2	336.2069	56	1	800	1220785.8813	 0.0034	 6.0159	 6.8336	 7.5509	 7.8878	0
987	4	5	1	2	419.2224	29	1	800	1220785.8813	 0.0034	 7.9012	 8.7185	 9.4358	 9.8557	0
987	4	6	1	2	490.9319	29	0	800	1220785.8813	 0.0034	 9.8695	10.6868	11.4041	11.8958	0
987	4	7	1	2	548.3449	29	1	800	1220785.8813	 0.0034	 0.0120	 0.8293	 1.5463	 2.0955	0
987	4	8	1	2	478.6440	56	1	800	1220785.8813	 0.0034	 2.1139	 2.9310	 3.6484	 4.1278	0
987	4	9	1	2	499.7507	56	1	800	1220785.8813	 0.0034	 4.1488	 4.9662	 5.6834	 6.1838	0
987	4	10	1	2	399.9087	29	1	800	1220785.8813	 0.0034	 6.2006	 7.0178	 7.7351	 8.1357	0
987	4	11	1	2	400.1718	56	1	800	1220785.8813	 0.0034	 8.1522	 8.9695	 9.6867	10.0876	0
987	4	12	1	2	440.5696	29	1	800	1220785.8813	 0.0034	10.1038	10.9211	11.6384	12.0797	0
987	4	13	1	2	423.2701	29	1	800	1220785.8813	 0.0034	12.0888	12.9061	13.6234	14.0473	0
987	4	14	1	2	398.9652	56	1	800	1220785.8813	 0.0034	14.0570	14.8744	15.5917	15.9914	0
987	4	15	1	2	423.8556	29	1	800	1220785.8813	 0.0034	16.0087	16.8260	17.5432	17.9678	0
987	4	16	1	2	447.3848	56	1	800	1220785.8813	 0.0034	17.9770	18.7943	19.5116	19.9597	0
987	4	17	1	2	397.5338	29	1	800	1220785.8813	 0.0034	19.9786	20.7960	21.5132	21.9115	0
987	4	18	1	2	478.0212	56	1	800	1220785.8813	 0.0034	21.9303	22.7476	23.4650	23.9437	0
987	4	19	1	2	522.7459	56	0	800	1220785.8813	 0.0034	23.9653	24.7827	25.5000	26.0234	0
987	4	20	1	2	699.6871	1	0	800	1220785.8813	 0.0034	 0.0204	 0.8377	 1.5550	 2.2559	0
987	4	21	1	2	439.8023	56	1	800	1220785.8813	 0.0034	 0.0088	 0.8261	 1.5435	 1.9839	0
987	4	22	1	2	374.8946	29	1	800	1220785.8813	 0.0034	 1.9939	 2.8111	 3.5284	 3.9040	0
987	4	23	1	2	560.8141	29	1	800	1220785.8813	 0.0034	 3.9131	 4.7295	 5.4467	 6.0083	0
987	4	24	1	2	458.9923	29	1	800	1220785.8813	 0.0034	 6.0138	 6.8312	 7.5483	 8.0081	0
987	4	25	1	2	457.1230	56	1	800	1220785.8813	 0.0034	 8.0177	 8.8329	 9.5502	10.0079	0
987	4	26	1	2	351.5729	29	1	800	1220785.8813	 0.0034	10.0168	10.8345	11.5517	11.9040	0
987	4	27	1	2	626.2289	56	1	800	1220785.8813	 0.0034	11.9187	12.7361	13.4533	14.0803	0
987	4	28	1	2	416.8518	56	1	800	1220785.8813	 0.0034	14.1039	14.9212	15.6385	16.0561	0
987	4	29	1	2	496.6761	56	1	800	1220785.8813	 0.0034	16.0722	16.8896	17.6067	18.1042	0
987	4	30	1	2	340.9218	29	1	800	1220785.8813	 0.0034	18.1238	18.9412	19.6585	20.0001	0
987	5	1	1	2	424.8056	29	1	800	1220785.8813	20.0046	 0.0079	 0.8250	 1.5423	 1.9679	0
987	5	2	1	2	456.5059	29	1	800	1220785.8813	20.0046	 1.9765	 2.7933	 3.5106	 3.9679	0
987	5	3	1	2	510.6816	29	1	800	1220785.8813	20.0046	 3.9776	 4.7951	 5.5123	 6.0237	0
987	5	4	1	2	306.8554	56	1	800	1220785.8813	20.0046	 6.0462	 6.8634	 7.5807	 7.8882	0
987	5	5	1	2	391.3065	29	1	800	1220785.8813	20.0046	 7.8981	 8.7149	 9.4322	 9.8241	0
987	5	6	1	2	480.1408	29	1	800	1220785.8813	20.0046	 9.8323	10.6499	11.3672	11.8480	0
987	5	7	1	2	396.8804	29	1	800	1220785.8813	20.0046	11.8676	12.6849	13.4022	13.7999	0
987	5	8	1	2	597.0820	56	1	800	1220785.8813	20.0046	13.8193	14.6365	15.3538	15.9516	0
987	5	9	1	2	645.5169	56	1	800	1220785.8813	20.0046	15.9709	16.7883	17.5057	18.1520	0
987	5	10	1	2	505.0196	29	1	800	1220785.8813	20.0046	18.2396	19.0569	19.7742	20.2799	0
987	5	11	1	2	493.1992	56	1	800	1220785.8813	20.0046	20.2912	21.1086	21.8258	22.3198	0
987	5	12	1	2	434.5318	29	1	800	1220785.8813	20.0046	22.3270	23.1436	23.8609	24.2961	0
987	6	1	1	2	478.8420	56	1	800	1220785.8813	24.2992	 0.0101	 0.8273	 1.5448	 2.0243	0
987	6	2	1	2	444.0002	29	0	800	1220785.8813	24.2992	 3.2127	 4.0300	 4.7473	 5.1922	0
987	6	3	1	2	606.1619	56	0	800	1220785.8813	24.2992	 0.0104	 0.8278	 1.5451	 2.1520	0
987	6	4	1	2	699.7479	1	0	800	1220785.8813	24.2992	 0.0170	 0.8344	 1.5517	 2.2519	0
987	6	5	1	2	401.8840	29	1	800	1220785.8813	24.2992	 0.0151	 0.8325	 1.5497	 1.9523	0
987	6	6	1	2	578.0690	29	1	800	1220785.8813	24.2992	 1.9668	 2.7841	 3.5013	 4.0803	0
987	6	7	1	2	690.7338	29	1	800	1220785.8813	24.2992	 4.1018	 4.9193	 5.6364	 6.3279	0
987	6	8	1	2	567.4945	56	1	800	1220785.8813	24.2992	 6.3369	 7.1544	 7.8716	 8.4399	0
987	6	9	1	2	633.0070	29	1	800	1220785.8813	24.2992	 8.4554	 9.2729	 9.9901	10.6239	0
987	6	10	1	2	407.9500	56	1	800	1220785.8813	24.2992	10.6405	11.4577	12.1754	12.5841	0
987	6	11	1	2	440.2463	56	1	800	1220785.8813	24.2992	12.5942	13.4096	14.1270	14.5680	0
987	6	12	1	2	511.2938	29	1	800	1220785.8813	24.2992	14.5771	15.3947	16.1119	16.6240	0
987	6	13	1	2	531.6520	56	1	800	1220785.8813	24.2992	16.6307	17.4464	18.1635	18.6959	0
987	6	14	1	2	478.4380	56	1	800	1220785.8813	24.2992	18.7140	19.5314	20.2487	20.7279	0
987	6	15	1	2	411.5003	29	1	800	1220785.8813	24.2992	20.7491	21.5665	22.2837	22.6959	0
987	6	16	1	2	419.9585	56	0	800	1220785.8813	24.2992	22.7004	23.5180	24.2353	24.6560	0
987	6	17	1	2	604.1299	29	1	800	1220785.8813	24.2992	 0.0205	 0.8378	 1.5551	 2.1600	0
987	6	18	1	2	596.3771	56	1	800	1220785.8813	24.2992	 2.1724	 2.9895	 3.7069	 4.3040	0
987	6	19	1	2	699.9317	1	0	800	1220785.8813	24.2992	 4.3241	 5.1413	 5.8586	 6.5591	0
987	6	20	1	2	699.7773	1	0	800	1220785.8813	24.2992	 0.0174	 0.8349	 1.5521	 2.2524	0
987	6	21	1	2	566.5748	29	1	800	1220785.8813	24.2992	 0.0180	 0.8353	 1.5525	 2.1198	0
987	6	22	1	2	567.8830	29	0	800	1220785.8813	24.2992	 2.1364	 2.9537	 3.6711	 4.2403	0
987	6	23	1	2	521.9725	29	1	800	1220785.8813	24.2992	 0.0146	 0.8320	 1.5492	 2.0720	0
987	6	24	1	2	565.4933	56	1	800	1220785.8813	24.2992	 2.0830	 2.9003	 3.6176	 4.1839	0
987	6	25	1	2	535.2523	56	1	800	1220785.8813	24.2992	 4.2015	 5.0188	 5.7360	 6.2720	0
987	6	26	1	2	465.9277	56	1	800	1220785.8813	24.2992	 6.2865	 7.1038	 7.8212	 8.2879	0
987	6	27	1	2	495.6303	56	1	800	1220785.8813	24.2992	 8.3049	 9.1222	 9.8395	10.3359	0
987	6	28	1	2	379.9665	29	1	800	1220785.8813	24.2992	10.3565	11.1739	11.8912	12.2719	0
987	6	29	1	2	453.0599	29	1	800	1220785.8813	24.2992	12.2915	13.1089	13.8262	14.2800	0
987	6	30	1	2	403.6066	56	1	800	1220785.8813	24.2992	14.2932	15.1105	15.8279	16.2322	0
SUBID	BLOCK	TRIAL	REP	RUNID	RT	RESP	ACC	RSIJIT	EV_START	EV_BLOCK	EV_TRIAL	EV_RETRIEVAL	EV_PROBE	EV_RESP	EV_BLEND
987	7	1	1	3	444.5569	29	1	800	1221043.8259	 0.0050	 0.0105	 0.8278	 1.5451	 1.9966	0
987	7	2	1	3	428.8588	29	1	800	1221043.8259	 0.0050	 2.0120	 2.8292	 3.5465	 3.9765	0
987	7	3	1	3	675.4832	29	0	800	1221043.8259	 0.0050	 3.9969	 4.8142	 5.5315	 6.2082	0
987	7	4	1	3	453.9307	56	1	800	1221043.8259	 0.0050	 0.0104	 0.8277	 1.5449	 1.9996	0
987	7	5	1	3	468.1559	56	1	800	1221043.8259	 0.0050	 2.0120	 2.8294	 3.5466	 4.0154	0
987	7	6	1	3	401.7254	29	1	800	1221043.8259	 0.0050	 4.0303	 4.8477	 5.5650	 5.9674	0
987	7	7	1	3	402.7150	56	1	800	1221043.8259	 0.0050	 5.9820	 6.7993	 7.5165	 7.9199	0
987	7	8	1	3	418.7102	56	1	800	1221043.8259	 0.0050	 7.9335	 8.7510	 9.4682	 9.8877	0
987	7	9	1	3	562.3865	29	1	800	1221043.8259	 0.0050	 9.9019	10.7193	11.4365	11.9996	0
987	7	10	1	3	435.8123	29	1	800	1221043.8259	 0.0050	12.0203	12.8377	13.5551	13.9916	0
987	7	11	1	3	514.9406	29	1	800	1221043.8259	 0.0050	14.0053	14.8228	15.5400	16.0557	0
987	7	12	1	3	446.5877	56	1	800	1221043.8259	 0.0050	16.0738	16.8911	17.6084	18.0558	0
987	8	1	1	3	459.6925	29	1	800	1221043.8259	18.0594	 0.0046	 0.8224	 1.5398	 2.0001	0
987	8	2	1	3	369.4885	56	1	800	1221043.8259	18.0594	 2.0235	 2.8407	 3.5580	 3.9283	0
987	8	3	1	3	475.1288	29	0	800	1221043.8259	18.0594	 3.9417	 4.7590	 5.4763	 5.9522	0
987	8	4	1	3	476.3799	29	1	800	1221043.8259	18.0594	 0.0205	 0.8378	 1.5551	 2.0323	0
987	8	5	1	3	409.2912	56	1	800	1221043.8259	18.0594	 2.0556	 2.8728	 3.5902	 4.0002	0
987	8	6	1	3	321.6624	56	1	800	1221043.8259	18.0594	 4.0069	 4.8245	 5.5418	 5.8642	0
987	8	7	1	3	373.5674	29	1	800	1221043.8259	18.0594	 5.8754	 6.6927	 7.4100	 7.7844	0
987	8	8	1	3	375.2890	56	1	800	1221043.8259	18.0594	 7.7936	 8.6111	 9.3283	 9.7044	0
987	8	9	1	3	481.2397	29	1	800	1221043.8259	18.0594	 9.7132	10.5292	11.2465	11.7285	0
987	8	10	1	3	525.9725	29	1	800	1221043.8259	18.0594	11.7470	12.5643	13.2815	13.8082	0
987	8	11	1	3	265.8706	56	1	800	1221043.8259	18.0594	13.8152	14.6327	15.3500	15.6165	0
987	8	12	1	3	463.2085	29	1	800	1221043.8259	18.0594	15.6334	16.4509	17.1681	17.6322	0
987	8	13	1	3	613.0647	56	1	800	1221043.8259	18.0594	17.6519	18.4693	19.1865	19.8004	0
987	8	14	1	3	476.8802	29	1	800	1221043.8259	18.0594	19.8204	20.6377	21.3549	21.8325	0
987	8	15	1	3	546.4677	29	1	800	1221043.8259	18.0594	21.8392	22.6560	23.3734	23.9205	0
987	8	16	1	3	500.7861	29	1	800	1221043.8259	18.0594	23.9405	24.7578	25.4751	25.9766	0
987	8	17	1	3	417.0493	56	1	800	1221043.8259	18.0594	25.9922	26.8095	27.5268	27.9445	0
987	8	18	1	3	512.3375	56	1	800	1221043.8259	18.0594	27.9605	28.7778	29.4952	30.0083	0
987	8	19	1	3	676.1275	29	1	800	1221043.8259	18.0594	30.0289	30.8462	31.5635	32.2404	0
987	8	20	1	3	481.6968	29	1	800	1221043.8259	18.0594	32.2472	33.0647	33.7820	34.2645	0
987	8	21	1	3	462.9674	29	1	800	1221043.8259	18.0594	34.2824	35.0998	35.8170	36.2807	0
987	8	22	1	3	644.4767	29	1	800	1221043.8259	18.0594	36.3007	37.1183	37.8354	38.4806	0
987	8	23	1	3	690.0782	29	1	800	1221043.8259	18.0594	38.5026	39.3199	40.0373	40.7282	0
987	8	24	1	3	503.1776	29	1	800	1221043.8259	18.0594	40.7375	41.5552	42.2725	42.7764	0
987	8	25	1	3	507.7754	29	1	800	1221043.8259	18.0594	42.7895	43.6069	44.3242	44.8326	0
987	8	26	1	3	479.7442	29	1	800	1221043.8259	18.0594	44.8409	45.6586	46.3759	46.8564	0
987	8	27	1	3	420.8142	29	1	800	1221043.8259	18.0594	46.8760	47.6937	48.4109	48.8325	0
987	8	28	1	3	476.3718	29	1	800	1221043.8259	18.0594	48.8446	49.6619	50.3793	50.8565	0
987	8	29	1	3	434.2040	56	1	800	1221043.8259	18.0594	50.8633	51.6804	52.3976	52.8326	0
987	8	30	1	3	473.3602	29	1	800	1221043.8259	18.0594	52.8479	53.6654	54.3826	54.8566	0
987	9	1	1	3	502.1796	29	1	800	1221043.8259	54.8586	 0.0100	 0.8277	 1.5449	 2.0478	0
987	9	2	1	3	394.2995	29	1	800	1221043.8259	54.8586	 2.0621	 2.8795	 3.5967	 3.9918	0
987	9	3	1	3	627.5197	56	1	800	1221043.8259	54.8586	 3.9978	 4.8145	 5.5317	 6.1600	0
987	9	4	1	3	699.9989	1	0	800	1221043.8259	54.8586	 6.1653	 6.9830	 7.7001	 8.4014	0
987	9	5	1	3	510.2132	56	0	800	1221043.8259	54.8586	 0.0123	 0.8279	 1.5451	 2.0561	0
987	9	6	1	3	418.4003	56	1	800	1221043.8259	54.8586	 0.0142	 0.8314	 1.5489	 1.9680	0
987	9	7	1	3	482.3965	29	1	800	1221043.8259	54.8586	 1.9824	 2.7998	 3.5170	 4.0001	0
987	9	8	1	3	439.5727	29	1	800	1221043.8259	54.8586	 4.0175	 4.8349	 5.5522	 5.9925	0
987	9	9	1	3	334.2759	56	1	800	1221043.8259	54.8586	 6.0026	 6.8198	 7.5372	 7.8722	0
987	9	10	1	3	425.1438	29	1	800	1221043.8259	54.8586	 7.8874	 8.7047	 9.4221	 9.8480	0
987	9	11	1	3	513.1130	56	1	800	1221043.8259	54.8586	 9.8573	10.6730	11.3902	11.9041	0
987	9	12	1	3	508.5482	29	1	800	1221043.8259	54.8586	11.9241	12.7415	13.4587	13.9679	0
SUBID	BLOCK	TRIAL	REP	RUNID	RT	RESP	ACC	RSIJIT	EV_START	EV_BLOCK	EV_TRIAL	EV_RETRIEVAL	EV_PROBE	EV_RESP	EV_BLEND
987	10	1	1	4	392.6436	56	1	800	1221275.9057	 0.0049	 0.0140	 0.8314	 1.5487	 1.9483	0
987	10	2	1	4	474.9594	29	1	800	1221275.9057	 0.0049	 1.9654	 2.7827	 3.5001	 3.9763	0
987	10	3	1	4	592.1670	29	1	800	1221275.9057	 0.0049	 3.9833	 4.8008	 5.5184	 6.1118	0
987	10	4	1	4	353.5504	56	1	800	1221275.9057	 0.0049	 6.1193	 6.9362	 7.6535	 8.0078	0
987	10	5	1	4	403.6548	29	1	800	1221275.9057	 0.0049	 8.0205	 8.8378	 9.5550	 9.9595	0
987	10	6	1	4	588.0053	29	1	800	1221275.9057	 0.0049	 9.9721	10.7895	11.5067	12.0955	0
987	10	7	1	4	492.7919	29	1	800	1221275.9057	 0.0049	12.1072	12.9247	13.6419	14.1355	0
987	10	8	1	4	665.7825	29	1	800	1221275.9057	 0.0049	14.1442	14.9596	15.6769	16.3434	0
987	10	9	1	4	503.2543	56	1	800	1221275.9057	 0.0049	16.3608	17.1781	17.8954	18.3994	0
987	10	10	1	4	443.7212	56	1	800	1221275.9057	 0.0049	18.4124	19.2299	19.9471	20.3915	0
987	10	11	1	4	346.1808	56	1	800	1221275.9057	 0.0049	20.4141	21.2315	21.9488	22.2957	0
987	10	12	1	4	468.2996	29	1	800	1221275.9057	 0.0049	22.3157	23.1330	23.8504	24.3195	0
987	10	13	1	4	498.1375	56	1	800	1221275.9057	 0.0049	24.3341	25.1516	25.8687	26.3675	0
987	10	14	1	4	430.2581	29	1	800	1221275.9057	 0.0049	26.3858	27.2033	27.9205	28.3515	0
987	10	15	1	4	485.2328	29	1	800	1221275.9057	 0.0049	28.3708	29.1881	29.9054	30.3914	0
987	10	16	1	4	458.6496	56	1	800	1221275.9057	 0.0049	30.4058	31.2232	31.9404	32.3997	0
987	10	17	1	4	560.8912	29	0	800	1221275.9057	 0.0049	32.4073	33.2249	33.9421	34.5037	0
987	10	18	1	4	527.9607	29	1	800	1221275.9057	 0.0049	 0.0078	 0.8256	 1.5428	 2.0715	0
987	10	19	1	4	418.9653	56	1	800	1221275.9057	 0.0049	 2.0934	 2.9107	 3.6279	 4.0476	0
987	10	20	1	4	426.8848	56	1	800	1221275.9057	 0.0049	 4.0616	 4.8800	 5.5964	 6.0239	0
987	10	21	1	4	449.9102	29	1	800	1221275.9057	 0.0049	 6.0466	 6.8639	 7.5812	 8.0319	0
987	10	22	1	4	376.3550	29	1	800	1221275.9057	 0.0049	 8.0483	 8.8656	 9.5829	 9.9599	0
987	10	23	1	4	394.0377	29	1	800	1221275.9057	 0.0049	 9.9663	10.7839	11.5012	11.8959	0
987	10	24	1	4	699.8655	1	0	800	1221275.9057	 0.0049	11.9031	12.7188	13.4361	14.1372	0
987	10	25	1	4	404.7776	56	1	800	1221275.9057	 0.0049	 0.0115	 0.8289	 1.5461	 1.9515	0
987	10	26	1	4	699.8690	1	0	800	1221275.9057	 0.0049	 1.9632	 2.7806	 3.4978	 4.1981	0
987	10	27	1	4	375.8999	56	1	800	1221275.9057	 0.0049	 0.0083	 0.8260	 1.5433	 1.9199	0
987	10	28	1	4	353.7269	56	1	800	1221275.9057	 0.0049	 1.9287	 2.7443	 3.4615	 3.8159	0
987	10	29	1	4	379.8976	56	1	800	1221275.9057	 0.0049	 3.8285	 4.6458	 5.3631	 5.7438	0
987	10	30	1	4	388.7359	29	1	800	1221275.9057	 0.0049	 5.7634	 6.5808	 7.2981	 7.6875	0
987	11	1	1	4	549.3034	56	1	800	1221275.9057	 7.6913	 0.0116	 0.8290	 1.5462	 2.0962	0
987	11	2	1	4	471.3522	56	1	800	1221275.9057	 7.6913	 2.1134	 2.9307	 3.6480	 4.1201	0
987	11	3	1	4	293.0377	56	1	800	1221275.9057	 7.6913	 4.1317	 4.9491	 5.6664	 5.9602	0
987	11	4	1	4	465.8947	56	1	800	1221275.9057	 7.6913	 5.9670	 6.7840	 7.5012	 7.9677	0
987	11	5	1	4	448.0005	56	1	800	1221275.9057	 7.6913	 7.9850	 8.8023	 9.5196	 9.9683	0
987	11	6	1	4	438.1466	29	1	800	1221275.9057	 7.6913	 9.9866	10.8040	11.5212	11.9601	0
987	11	7	1	4	637.1139	56	1	800	1221275.9057	 7.6913	11.9716	12.7890	13.5061	14.1440	0
987	11	8	1	4	411.8678	29	1	800	1221275.9057	 7.6913	14.1568	14.9742	15.6914	16.1041	0
987	11	9	1	4	467.4773	56	1	800	1221275.9057	 7.6913	16.1251	16.9442	17.6597	18.1280	0
987	11	10	1	4	425.1070	56	1	800	1221275.9057	 7.6913	18.1435	18.9608	19.6781	20.1040	0
987	11	11	1	4	392.7739	29	1	800	1221275.9057	 7.6913	20.1133	20.9291	21.6464	22.0398	0
987	11	12	1	4	450.0021	56	1	800	1221275.9057	 7.6913	22.0472	22.8640	23.5813	24.0321	0
987	12	1	1	4	517.5690	56	1	800	1221275.9057	24.0350	 0.0190	 0.8362	 1.5535	 2.0718	0
987	12	2	1	4	369.2571	29	1	800	1221275.9057	24.0350	 2.0874	 2.9047	 3.6220	 3.9921	0
987	12	3	1	4	347.3635	56	1	800	1221275.9057	24.0350	 4.0056	 4.8230	 5.5402	 5.8883	0
987	12	4	1	4	445.1958	29	0	800	1221275.9057	24.0350	 5.9072	 6.7246	 7.4419	 7.8877	0
987	12	5	1	4	344.6395	29	1	800	1221275.9057	24.0350	 0.0159	 0.8334	 1.5505	 1.8959	0
987	12	6	1	4	452.0214	56	1	800	1221275.9057	24.0350	 1.9032	 2.7183	 3.4355	 3.8882	0
987	12	7	1	4	442.2226	29	1	800	1221275.9057	24.0350	 3.9025	 4.7200	 5.4372	 5.8802	0
987	12	8	1	4	496.9770	29	1	800	1221275.9057	24.0350	 5.8886	 6.7049	 7.4222	 7.9199	0
987	12	9	1	4	365.3932	56	1	800	1221275.9057	24.0350	 7.9393	 8.7566	 9.4739	 9.8400	0
987	12	10	1	4	415.2381	29	1	800	1221275.9057	24.0350	 9.8575	10.6749	11.3921	11.8081	0
987	12	11	1	4	350.6757	56	1	800	1221275.9057	24.0350	11.8259	12.6431	13.3605	13.7118	0
987	12	12	1	4	511.4836	56	1	800	1221275.9057	24.0350	13.7274	14.5448	15.2637	15.7760	0
987	12	13	1	4	452.7267	29	1	800	1221275.9057	24.0350	15.7958	16.6132	17.3304	17.7839	0
987	12	14	1	4	354.9181	56	1	800	1221275.9057	24.0350	17.7975	18.6150	19.3322	19.6878	0
987	12	15	1	4	445.4372	56	1	800	1221275.9057	24.0350	19.6991	20.5166	21.2337	21.6797	0
987	12	16	1	4	564.1723	56	1	800	1221275.9057	24.0350	21.7007	22.5181	23.2353	23.8002	0
987	12	17	1	4	389.3947	56	1	800	1221275.9057	24.0350	23.8192	24.6365	25.3538	25.7440	0
987	12	18	1	4	406.3769	29	1	800	1221275.9057	24.0350	25.7541	26.5715	27.2888	27.6959	0
987	12	19	1	4	366.7037	56	1	800	1221275.9057	24.0350	27.7059	28.5232	29.2404	29.6077	0
987	12	20	1	4	448.7732	29	1	800	1221275.9057	24.0350	29.6240	30.4415	31.1586	31.6081	0
987	12	21	1	4	327.3538	56	1	800	1221275.9057	24.0350	31.6257	32.4430	33.1603	33.4883	0
987	12	22	1	4	466.7101	29	1	800	1221275.9057	24.0350	33.4940	34.3113	35.0285	35.4960	0
987	12	23	1	4	376.2423	29	1	800	1221275.9057	24.0350	35.5123	36.3296	37.0469	37.4239	0
987	12	24	1	4	497.6424	29	1	800	1221275.9057	24.0350	37.4473	38.2646	38.9819	39.4802	0
987	12	25	1	4	413.8952	29	1	800	1221275.9057	24.0350	39.4989	40.3163	41.0336	41.4482	0
987	12	26	1	4	453.2463	29	1	800	1221275.9057	24.0350	41.4672	42.2846	43.0019	43.4558	0
987	12	27	1	4	451.6601	56	1	800	1221275.9057	24.0350	43.4690	44.2863	45.0035	45.4559	0
987	12	28	1	4	394.2910	56	1	800	1221275.9057	24.0350	45.4706	46.2879	47.0052	47.4001	0
987	12	29	1	4	371.2894	29	1	800	1221275.9057	24.0350	47.4068	48.2228	48.9401	49.3121	0
987	12	30	1	4	372.7190	29	1	800	1221275.9057	24.0350	49.3238	50.1411	50.8584	51.2319	0
SUBID	BLOCK	TRIAL	REP	RUNID	RT	RESP	ACC	RSIJIT	EV_START	EV_BLOCK	EV_TRIAL	EV_RETRIEVAL	EV_PROBE	EV_RESP	EV_BLEND
987	13	1	1	5	470.0071	29	0	800	1221494.5227	 0.0054	 0.0170	 0.8343	 1.5516	 2.0288	0
987	13	2	1	5	414.0682	29	1	800	1221494.5227	 0.0054	 0.0180	 0.8353	 1.5526	 1.9679	0
987	13	3	1	5	699.7497	1	0	800	1221494.5227	 0.0054	 1.9862	 2.8036	 3.5210	 4.2223	0
987	13	4	1	5	569.4319	56	1	800	1221494.5227	 0.0054	 0.0085	 0.8246	 1.5418	 2.1121	0
987	13	5	1	5	410.6808	56	1	800	1221494.5227	 0.0054	 2.1257	 2.9430	 3.6601	 4.0716	0
987	13	6	1	5	595.1534	56	1	800	1221494.5227	 0.0054	 4.0792	 4.8946	 5.6120	 6.2079	0
987	13	7	1	5	419.2449	56	1	800	1221494.5227	 0.0054	 6.2291	 7.0465	 7.7637	 8.1837	0
987	13	8	1	5	363.3868	29	1	800	1221494.5227	 0.0054	 8.1973	 9.0147	 9.7320	10.0961	0
987	13	9	1	5	508.7834	56	1	800	1221494.5227	 0.0054	10.1157	10.9330	11.6503	12.1598	0
987	13	10	1	5	473.3219	56	1	800	1221494.5227	 0.0054	12.1678	12.9847	13.7019	14.1760	0
987	13	11	1	5	518.6600	29	1	800	1221494.5227	 0.0054	14.1856	15.0031	15.7203	16.2397	0
987	13	12	1	5	378.7181	56	1	800	1221494.5227	 0.0054	16.2541	17.0715	17.7887	18.1681	0
987	14	1	1	5	578.1417	29	1	800	1221494.5227	18.1718	 0.0076	 0.8238	 1.5411	 2.1199	0
987	14	2	1	5	434.8038	29	1	800	1221494.5227	18.1718	 2.1415	 2.9589	 3.6762	 4.1118	0
987	14	3	1	5	593.9326	56	1	800	1221494.5227	18.1718	 4.1265	 4.9439	 5.6611	 6.2558	0
987	14	4	1	5	331.1783	56	1	800	1221494.5227	18.1718	 6.2632	 7.0789	 7.7963	 8.1281	0
987	14	5	1	5	694.2961	56	1	800	1221494.5227	18.1718	 8.1466	 8.9639	 9.6812	10.3762	0
987	14	6	1	5	401.9348	56	1	800	1221494.5227	18.1718	10.3984	11.2158	11.9330	12.3358	0
987	14	7	1	5	417.4016	56	1	800	1221494.5227	18.1718	12.3501	13.1673	13.8856	14.3038	0
987	14	8	1	5	522.0068	56	1	800	1221494.5227	18.1718	14.3184	15.1357	15.8530	16.3758	0
987	14	9	1	5	477.6855	56	1	800	1221494.5227	18.1718	16.3868	17.2041	17.9213	18.3998	0
987	14	10	1	5	482.8422	29	1	800	1221494.5227	18.1718	18.4219	19.2392	19.9565	20.4400	0
987	14	11	1	5	455.7159	29	1	800	1221494.5227	18.1718	20.4568	21.2742	21.9916	22.4480	0
987	14	12	1	5	541.9190	56	1	800	1221494.5227	18.1718	22.4585	23.2760	23.9930	24.5356	0
987	14	13	1	5	376.8829	56	1	800	1221494.5227	18.1718	24.5447	25.3610	26.0782	26.4559	0
987	14	14	1	5	474.9173	56	1	800	1221494.5227	18.1718	26.4633	27.2792	27.9965	28.4721	0
987	14	15	1	5	496.2184	56	1	800	1221494.5227	18.1718	28.4801	29.2976	30.0149	30.5119	0
987	14	16	1	5	484.4478	29	1	800	1221494.5227	18.1718	30.5319	31.3492	32.0666	32.5518	0
987	14	17	1	5	441.4457	56	1	800	1221494.5227	18.1718	32.5670	33.3843	34.1016	34.5437	0
987	14	18	1	5	464.9436	56	1	800	1221494.5227	18.1718	34.5522	35.3692	36.0865	36.5522	0
987	14	19	1	5	374.4730	29	0	800	1221494.5227	18.1718	36.5703	37.3877	38.1050	38.4801	0
987	14	20	1	5	325.6002	56	1	800	1221494.5227	18.1718	 0.0191	 0.8365	 1.5538	 1.8801	0
987	14	21	1	5	529.7447	56	1	800	1221494.5227	18.1718	 1.8871	 2.7047	 3.4220	 3.9524	0
987	14	22	1	5	412.8078	56	1	800	1221494.5227	18.1718	 3.9724	 4.7898	 5.5070	 5.9205	0
987	14	23	1	5	444.4673	29	1	800	1221494.5227	18.1718	 5.9406	 6.7581	 7.4753	 7.9205	0
987	14	24	1	5	490.3100	29	1	800	1221494.5227	18.1718	 7.9424	 8.7597	 9.4770	 9.9680	0
987	14	25	1	5	287.5869	56	1	800	1221494.5227	18.1718	 9.9774	10.7947	11.5121	11.8004	0
987	14	26	1	5	404.4223	56	1	800	1221494.5227	18.1718	11.8123	12.6296	13.3468	13.7520	0
987	14	27	1	5	468.9234	29	1	800	1221494.5227	18.1718	13.7639	14.5811	15.2985	15.7681	0
987	14	28	1	5	450.5548	29	1	800	1221494.5227	18.1718	15.7823	16.5995	17.3168	17.7682	0
987	14	29	1	5	449.1360	56	0	800	1221494.5227	18.1718	17.7839	18.6013	19.3185	19.7683	0
987	14	30	1	5	465.6883	56	1	800	1221494.5227	18.1718	 0.0149	 0.8323	 1.5496	 2.0160	0
987	15	1	1	5	676.4600	29	1	800	1221494.5227	 2.0180	 0.0057	 0.8214	 1.5386	 2.2158	0
987	15	2	1	5	699.9845	1	0	800	1221494.5227	 2.0180	 2.2232	 3.0398	 3.7571	 4.4575	0
987	15	3	1	5	401.8417	56	1	800	1221494.5227	 2.0180	 0.0226	 0.8400	 1.5573	 1.9598	0
987	15	4	1	5	642.4677	29	1	800	1221494.5227	 2.0180	 1.9742	 2.7917	 3.5088	 4.1520	0
987	15	5	1	5	465.2267	29	1	800	1221494.5227	 2.0180	 4.1592	 4.9767	 5.6940	 6.1600	0
987	15	6	1	5	470.9088	29	1	800	1221494.5227	 2.0180	 6.1778	 6.9951	 7.7123	 8.1840	0
987	15	7	1	5	420.3589	29	1	800	1221494.5227	 2.0180	 8.1960	 9.0134	 9.7307	10.1517	0
987	15	8	1	5	324.1924	56	1	800	1221494.5227	 2.0180	10.1644	10.9817	11.6990	12.0238	0
987	15	9	1	5	504.0710	56	1	800	1221494.5227	 2.0180	12.0327	12.8500	13.5673	14.0721	0
987	15	10	1	5	524.6099	56	1	800	1221494.5227	 2.0180	14.0844	14.9017	15.6190	16.1443	0
987	15	11	1	5	344.0314	56	1	800	1221494.5227	 2.0180	16.1528	16.9702	17.6873	18.0321	0
987	15	12	1	5	474.7821	29	1	800	1221494.5227	 2.0180	18.0378	18.8551	19.5723	20.0479	0
SUBID	BLOCK	TRIAL	REP	RUNID	RT	RESP	ACC	RSIJIT	EV_START	EV_BLOCK	EV_TRIAL	EV_RETRIEVAL	EV_PROBE	EV_RESP	EV_BLEND
987	16	1	1	6	394.5873	56	1	800	1221646.1780	 0.0053	 0.0207	 0.8378	 1.5552	 1.9573	0
987	16	2	1	6	340.2264	56	1	800	1221646.1780	 0.0053	 1.9718	 2.7891	 3.5065	 3.8480	0
987	16	3	1	6	311.5421	56	1	800	1221646.1780	 0.0053	 3.8568	 4.6741	 5.3913	 5.7041	0
987	16	4	1	6	331.0891	56	1	800	1221646.1780	 0.0053	 5.7250	 6.5423	 7.2596	 7.5913	0
987	16	5	1	6	326.1850	56	1	800	1221646.1780	 0.0053	 7.6099	 8.4273	 9.1445	 9.4715	0
987	16	6	1	6	418.0446	56	1	800	1221646.1780	 0.0053	 9.4802	10.2954	11.0127	11.4315	0
987	16	7	1	6	393.6452	56	1	800	1221646.1780	 0.0053	11.4464	12.2637	12.9811	13.3755	0
987	16	8	1	6	699.8124	1	0	800	1221646.1780	 0.0053	13.3980	14.2154	14.9323	15.6334	0
987	16	9	1	6	699.7409	1	0	800	1221646.1780	 0.0053	 0.0078	 0.8168	 1.5340	 2.2342	0
987	16	10	1	6	419.7017	29	1	800	1221646.1780	 0.0053	 0.0129	 0.8302	 1.5475	 1.9680	0
987	16	11	1	6	395.2540	29	1	800	1221646.1780	 0.0053	 1.9812	 2.7985	 3.5159	 3.9119	0
987	16	12	1	6	419.6703	29	1	800	1221646.1780	 0.0053	 3.9328	 4.7502	 5.4675	 5.8879	0
987	16	13	1	6	451.7774	29	0	800	1221646.1780	 0.0053	 5.9012	 6.7185	 7.4358	 7.8883	0
987	16	14	1	6	699.7502	1	0	800	1221646.1780	 0.0053	 0.0101	 0.8274	 1.5447	 2.2449	0
987	16	15	1	6	393.2129	29	1	800	1221646.1780	 0.0053	 0.0233	 0.8407	 1.5580	 1.9519	0
987	16	16	1	6	633.7943	29	1	800	1221646.1780	 0.0053	 1.9749	 2.7924	 3.5096	 4.1441	0
987	16	17	1	6	360.2174	29	1	800	1221646.1780	 0.0053	 4.1601	 4.9775	 5.6948	 6.0556	0
987	16	18	1	6	378.7462	29	1	800	1221646.1780	 0.0053	 6.0630	 6.8790	 7.5963	 7.9758	0
987	16	19	1	6	339.8764	56	1	800	1221646.1780	 0.0053	 7.9967	 8.8140	 9.5313	 9.8719	0
987	16	20	1	6	351.0262	29	1	800	1221646.1780	 0.0053	 9.8816	10.6990	11.4162	11.7679	0
987	16	21	1	6	401.2956	56	1	800	1221646.1780	 0.0053	11.7832	12.6005	13.3178	13.7199	0
987	16	22	1	6	377.6322	29	1	800	1221646.1780	 0.0053	13.7348	14.5521	15.2694	15.6477	0
987	16	23	1	6	370.6235	29	1	800	1221646.1780	 0.0053	15.6698	16.4871	17.2043	17.5757	0
987	16	24	1	6	684.3368	56	1	800	1221646.1780	 0.0053	17.5880	18.4054	19.1226	19.8076	0
987	16	25	1	6	489.3089	56	1	800	1221646.1780	 0.0053	19.8233	20.6405	21.3578	21.8479	0
987	16	26	1	6	494.2237	56	1	800	1221646.1780	 0.0053	21.8582	22.6755	23.3929	23.8879	0
987	16	27	1	6	378.5350	29	1	800	1221646.1780	 0.0053	23.9100	24.7274	25.4446	25.8239	0
987	16	28	1	6	491.7041	29	1	800	1221646.1780	 0.0053	25.8450	26.6624	27.3795	27.8719	0
987	16	29	1	6	384.5195	29	1	800	1221646.1780	 0.0053	27.8801	28.6973	29.4146	29.7998	0
987	16	30	1	6	441.9110	29	1	800	1221646.1780	 0.0053	29.8149	30.6323	31.3495	31.7921	0
987	17	1	1	6	486.2215	56	1	800	1221646.1780	31.7957	 0.0104	 0.8277	 1.5451	 2.0320	0
987	17	2	1	6	307.2098	56	1	800	1221646.1780	31.7957	 2.0455	 2.8628	 3.5800	 3.8880	0
987	17	3	1	6	407.8217	56	1	800	1221646.1780	31.7957	 3.8966	 4.7143	 5.4317	 5.8403	0
987	17	4	1	6	695.9060	29	1	800	1221646.1780	31.7957	 5.8485	 6.6660	 7.3834	 8.0800	0
987	17	5	1	6	444.2800	29	1	800	1221646.1780	31.7957	 8.1005	 8.9178	 9.6351	10.0801	0
987	17	6	1	6	275.2002	56	1	800	1221646.1780	31.7957	10.0855	10.9028	11.6202	11.8962	0
987	17	7	1	6	369.2912	56	0	800	1221646.1780	31.7957	11.9053	12.7210	13.4384	13.8084	0
987	17	8	1	6	398.1126	56	1	800	1221646.1780	31.7957	 0.0106	 0.8280	 1.5453	 1.9440	0
987	17	9	1	6	542.6672	29	1	800	1221646.1780	31.7957	 1.9624	 2.7798	 3.4968	 4.0403	0
987	17	10	1	6	433.5287	29	1	800	1221646.1780	31.7957	 4.0471	 4.8647	 5.5820	 6.0163	0
987	17	11	1	6	296.6719	56	1	800	1221646.1780	31.7957	 6.0324	 6.8497	 7.5669	 7.8645	0
987	17	12	1	6	373.0519	29	1	800	1221646.1780	31.7957	 7.8839	 8.7012	 9.4185	 9.7923	0
987	18	1	1	6	505.4713	29	1	800	1221646.1780	 9.7943	 0.0158	 0.8332	 1.5504	 2.0567	0
987	18	2	1	6	397.4478	56	1	800	1221646.1780	 9.7943	 2.0676	 2.8849	 3.6021	 4.0004	0
987	18	3	1	6	446.0059	29	0	800	1221646.1780	 9.7943	 4.0191	 4.8365	 5.5539	 6.0006	0
987	18	4	1	6	449.6463	56	1	800	1221646.1780	 9.7943	 0.0077	 0.8249	 1.5421	 1.9924	0
987	18	5	1	6	447.8262	56	1	800	1221646.1780	 9.7943	 2.0093	 2.8265	 3.5438	 3.9924	0
987	18	6	1	6	285.9723	56	1	800	1221646.1780	 9.7943	 4.0109	 4.8282	 5.5455	 5.8321	0
987	18	7	1	6	362.9612	56	1	800	1221646.1780	 9.7943	 5.8457	 6.6630	 7.3804	 7.7440	0
987	18	8	1	6	372.8476	29	1	800	1221646.1780	 9.7943	 7.7640	 8.5813	 9.2986	 9.6722	0
987	18	9	1	6	390.6521	29	1	800	1221646.1780	 9.7943	 9.6823	10.4997	11.2169	11.6083	0
987	18	10	1	6	504.0166	29	1	800	1221646.1780	 9.7943	11.6170	12.4345	13.1518	13.6566	0
987	18	11	1	6	372.1345	29	1	800	1221646.1780	 9.7943	13.6690	14.4862	15.2035	15.5764	0
987	18	12	1	6	374.0420	56	1	800	1221646.1780	 9.7943	15.5873	16.4046	17.1219	17.4966	0
987	18	13	1	6	455.3816	29	1	800	1221646.1780	 9.7943	17.5050	18.3229	19.0401	19.4962	0
987	18	14	1	6	565.7610	56	1	800	1221646.1780	 9.7943	19.5072	20.3244	21.0418	21.6084	0
987	18	15	1	6	423.5821	29	1	800	1221646.1780	 9.7943	21.6256	22.4429	23.1603	23.5846	0
987	18	16	1	6	455.1750	29	1	800	1221646.1780	 9.7943	23.5942	24.4112	25.1285	25.5844	0
987	18	17	1	6	501.6698	29	1	800	1221646.1780	 9.7943	25.5956	26.4130	27.1301	27.6325	0
987	18	18	1	6	465.6169	29	1	800	1221646.1780	 9.7943	27.6473	28.4646	29.1819	29.6483	0
987	18	19	1	6	615.2199	29	0	800	1221646.1780	 9.7943	29.6657	30.4830	31.2003	31.8162	0
987	18	20	1	6	372.9941	56	1	800	1221646.1780	 9.7943	 0.0193	 0.8367	 1.5539	 1.9275	0
987	18	21	1	6	430.9712	29	1	800	1221646.1780	 9.7943	 1.9375	 2.7549	 3.4721	 3.9038	0
987	18	22	1	6	390.2725	29	1	800	1221646.1780	 9.7943	 3.9225	 4.7398	 5.4571	 5.8481	0
987	18	23	1	6	391.2441	56	1	800	1221646.1780	 9.7943	 5.8577	 6.6748	 7.3921	 7.7840	0
987	18	24	1	6	399.8749	56	1	800	1221646.1780	 9.7943	 7.7927	 8.6098	 9.3270	 9.7277	0
987	18	25	1	6	424.9104	29	1	800	1221646.1780	 9.7943	 9.7441	10.5615	11.2786	11.7041	0
987	18	26	1	6	303.8616	56	1	800	1221646.1780	 9.7943	11.7133	12.5297	13.2470	13.5515	0
987	18	27	1	6	380.9947	56	1	800	1221646.1780	 9.7943	13.5639	14.3813	15.0985	15.4801	0
987	18	28	1	6	493.3665	29	1	800	1221646.1780	 9.7943	15.4989	16.3162	17.0334	17.5275	0
987	18	29	1	6	418.3469	56	1	800	1221646.1780	 9.7943	17.5357	18.3512	19.0685	19.4877	0
987	18	30	1	6	426.1250	29	1	800	1221646.1780	 9.7943	19.5022	20.3195	21.0368	21.4636	0
SUBID	BLOCK	TRIAL	REP	RUNID	RT	RESP	ACC	RSIJIT	EV_START	EV_BLOCK	EV_TRIAL	EV_RETRIEVAL	EV_PROBE	EV_RESP	EV_BLEND
987	19	1	1	7	417.7596	29	1	800	1222462.8017	 0.0051	 0.0129	 0.8303	 1.5474	 1.9725	0
987	19	2	1	7	418.2621	56	1	800	1222462.8017	 0.0051	 1.9977	 2.8150	 3.5322	 3.9517	0
987	19	3	1	7	370.1412	29	1	800	1222462.8017	 0.0051	 3.9660	 4.7833	 5.5005	 5.8719	0
987	19	4	1	7	427.5609	56	1	800	1222462.8017	 0.0051	 5.8843	 6.7015	 7.4189	 7.8471	0
987	19	5	1	7	346.7287	56	1	800	1222462.8017	 0.0051	 7.8692	 8.6865	 9.4038	 9.7513	0
987	19	6	1	7	381.4697	56	1	800	1222462.8017	 0.0051	 9.7708	10.5881	11.3053	11.6875	0
987	19	7	1	7	454.2004	29	1	800	1222462.8017	 0.0051	11.7058	12.5231	13.2404	13.6953	0
987	19	8	1	7	620.5873	56	1	800	1222462.8017	 0.0051	13.7074	14.5248	15.2420	15.8634	0
987	19	9	1	7	396.4131	29	1	800	1222462.8017	 0.0051	15.8759	16.6932	17.4105	17.8076	0
987	19	10	1	7	412.6723	29	1	800	1222462.8017	 0.0051	17.8275	18.6449	19.3622	19.7756	0
987	19	11	1	7	363.9557	56	1	800	1222462.8017	 0.0051	19.7958	20.6132	21.3305	21.6952	0
987	19	12	1	7	430.1653	29	1	800	1222462.8017	 0.0051	21.7142	22.5315	23.2487	23.6796	0
987	20	1	1	7	526.1445	29	1	800	1222462.8017	23.6831	 0.0183	 0.8357	 1.5532	 2.0801	0
987	20	2	1	7	699.9209	1	0	800	1222462.8017	23.6831	 2.0865	 2.9043	 3.6215	 4.3227	0
987	20	3	1	7	544.4682	56	1	800	1222462.8017	23.6831	 0.0156	 0.8330	 1.5503	 2.0955	0
987	20	4	1	7	395.1079	29	1	800	1222462.8017	23.6831	 2.1174	 2.9347	 3.6520	 4.0478	0
987	20	5	1	7	515.1142	56	1	800	1222462.8017	23.6831	 4.0691	 4.8864	 5.6036	 6.1196	0
987	20	6	1	7	414.5416	29	1	800	1222462.8017	23.6831	 6.1374	 6.9548	 7.6721	 8.0873	0
987	20	7	1	7	438.3569	29	1	800	1222462.8017	23.6831	 8.1057	 8.9231	 9.6404	10.0795	0
987	20	8	1	7	461.6936	29	1	800	1222462.8017	23.6831	10.0907	10.9080	11.6254	12.0877	0
987	20	9	1	7	338.9955	29	1	800	1222462.8017	23.6831	12.1090	12.9265	13.6437	13.9834	0
987	20	10	1	7	486.4538	56	1	800	1222462.8017	23.6831	13.9940	14.8114	15.5286	16.0158	0
987	20	11	1	7	371.3806	29	1	800	1222462.8017	23.6831	16.0290	16.8463	17.5636	17.9357	0
987	20	12	1	7	380.7900	56	1	800	1222462.8017	23.6831	17.9473	18.7646	19.4818	19.8633	0
987	20	13	1	7	414.2463	56	1	800	1222462.8017	23.6831	19.8822	20.6995	21.4168	21.8318	0
987	20	14	1	7	397.5286	29	1	800	1222462.8017	23.6831	21.8506	22.6678	23.3852	23.7835	0
987	20	15	1	7	446.1235	56	1	800	1222462.8017	23.6831	23.8021	24.6196	25.3368	25.7837	0
987	20	16	1	7	444.4362	29	1	800	1222462.8017	23.6831	25.8038	26.6213	27.3384	27.7836	0
987	20	17	1	7	514.4857	56	1	800	1222462.8017	23.6831	27.8055	28.6228	29.3401	29.8553	0
987	20	18	1	7	406.1675	29	1	800	1222462.8017	23.6831	29.8739	30.6913	31.4085	31.8155	0
987	20	19	1	7	422.3916	29	1	800	1222462.8017	23.6831	31.8255	32.6428	33.3602	33.7832	0
987	20	20	1	7	542.2949	29	1	800	1222462.8017	23.6831	33.7939	34.6112	35.3285	35.8715	0
987	20	21	1	7	417.3902	56	1	800	1222462.8017	23.6831	35.8808	36.6962	37.4136	37.8317	0
987	20	22	1	7	368.8164	29	1	800	1222462.8017	23.6831	37.8472	38.6646	39.3818	39.7513	0
987	20	23	1	7	426.7448	56	1	800	1222462.8017	23.6831	39.7656	40.5829	41.3001	41.7276	0
987	20	24	1	7	346.2986	56	1	800	1222462.8017	23.6831	41.7337	42.5511	43.2685	43.6156	0
987	20	25	1	7	652.6471	56	1	800	1222462.8017	23.6831	43.6355	44.4527	45.1700	45.8234	0
987	20	26	1	7	395.0153	29	1	800	1222462.8017	23.6831	45.8373	46.6547	47.3719	47.7676	0
987	20	27	1	7	444.0240	29	1	800	1222462.8017	23.6831	47.7716	48.5895	49.3068	49.7516	0
987	20	28	1	7	386.0891	56	1	800	1222462.8017	23.6831	49.7738	50.5912	51.3086	51.6954	0
987	20	29	1	7	363.1689	29	1	800	1222462.8017	23.6831	51.7088	52.5261	53.2434	53.6073	0
987	20	30	1	7	421.0620	29	1	800	1222462.8017	23.6831	53.6271	54.4444	55.1617	55.5835	0
987	21	1	1	7	454.0472	56	1	800	1222462.8017	55.5855	 0.0186	 0.8359	 1.5532	 2.0080	0
987	21	2	1	7	427.8431	29	1	800	1222462.8017	55.5855	 2.0202	 2.8376	 3.5549	 3.9834	0
987	21	3	1	7	515.9415	56	1	800	1222462.8017	55.5855	 3.9901	 4.8059	 5.5231	 6.0399	0
987	21	4	1	7	399.4124	29	1	800	1222462.8017	55.5855	 6.0569	 6.8743	 7.5915	 7.9917	0
987	21	5	1	7	407.6091	56	1	800	1222462.8017	55.5855	 8.0086	 8.8259	 9.5432	 9.9515	0
987	21	6	1	7	408.0970	56	1	800	1222462.8017	55.5855	 9.9606	10.7775	11.4948	11.9037	0
987	21	7	1	7	448.4447	29	1	800	1222462.8017	55.5855	11.9129	12.7291	13.4465	13.8957	0
987	21	8	1	7	415.0970	29	1	800	1222462.8017	55.5855	13.9135	14.7310	15.4481	15.8639	0
987	21	9	1	7	374.4682	56	1	800	1222462.8017	55.5855	15.8818	16.6991	17.4164	17.7916	0
987	21	10	1	7	424.3050	56	1	800	1222462.8017	55.5855	17.8006	18.6175	19.3347	19.7597	0
987	21	11	1	7	399.7595	56	1	800	1222462.8017	55.5855	19.7684	20.5857	21.3030	21.7035	0
987	21	12	1	7	368.3671	29	1	800	1222462.8017	55.5855	21.7200	22.5373	23.2547	23.6238	0
SUBID	BLOCK	TRIAL	REP	RUNID	RT	RESP	ACC	RSIJIT	EV_START	EV_BLOCK	EV_TRIAL	EV_RETRIEVAL	EV_PROBE	EV_RESP	EV_BLEND
987	22	1	1	8	416.3857	29	1	800	1222725.9222	 0.0054	 0.0145	 0.8319	 1.5493	 1.9736	0
987	22	2	1	8	384.9317	29	1	800	1222725.9222	 0.0054	 1.9993	 2.8166	 3.5339	 3.9200	0
987	22	3	1	8	314.1068	56	1	800	1222725.9222	 0.0054	 3.9342	 4.7516	 5.4688	 5.7842	0
987	22	4	1	8	390.0911	56	1	800	1222725.9222	 0.0054	 5.8026	 6.6198	 7.3371	 7.7278	0
987	22	5	1	8	318.8961	29	1	800	1222725.9222	 0.0054	 7.7374	 8.5547	 9.2720	 9.5916	0
987	22	6	1	8	362.5891	56	1	800	1222725.9222	 0.0054	 9.6056	10.4230	11.1403	11.5036	0
987	22	7	1	8	492.5223	29	1	800	1222725.9222	 0.0054	11.5240	12.3413	13.0585	13.5518	0
987	22	8	1	8	385.5127	29	1	800	1222725.9222	 0.0054	13.5599	14.3762	15.0936	15.4798	0
987	22	9	1	8	402.4835	29	1	800	1222725.9222	 0.0054	15.4939	16.3112	17.0285	17.4317	0
987	22	10	1	8	394.6812	56	1	800	1222725.9222	 0.0054	17.4455	18.2629	18.9801	19.3756	0
987	22	11	1	8	459.0442	56	1	800	1222725.9222	 0.0054	19.3972	20.2145	20.9318	21.3915	0
987	22	12	1	8	521.4586	56	1	800	1222725.9222	 0.0054	21.4000	22.2162	22.9335	23.4557	0
987	22	13	1	8	301.3111	56	1	800	1222725.9222	 0.0054	23.4673	24.2846	25.0018	25.3039	0
987	22	14	1	8	353.3587	29	1	800	1222725.9222	 0.0054	25.3187	26.1361	26.8534	27.2074	0
987	22	15	1	8	492.1476	29	1	800	1222725.9222	 0.0054	27.2204	28.0377	28.7550	29.2479	0
987	22	16	1	8	433.1211	29	1	800	1222725.9222	 0.0054	29.2554	30.0728	30.7900	31.2238	0
987	22	17	1	8	400.1735	29	1	800	1222725.9222	 0.0054	31.2403	32.0577	32.7750	33.1759	0
987	22	18	1	8	472.1830	56	1	800	1222725.9222	 0.0054	33.1920	34.0093	34.7266	35.1996	0
987	22	19	1	8	478.0784	29	1	800	1222725.9222	 0.0054	35.2104	36.0277	36.7451	37.2239	0
987	22	20	1	8	434.7022	29	1	800	1222725.9222	 0.0054	37.2454	38.0627	38.7801	39.2156	0
987	22	21	1	8	457.7452	56	1	800	1222725.9222	 0.0054	39.2304	40.0478	40.7650	41.2235	0
987	22	22	1	8	504.2939	56	1	800	1222725.9222	 0.0054	41.2317	42.0494	42.7667	43.2717	0
987	22	23	1	8	572.4554	29	1	800	1222725.9222	 0.0054	43.2838	44.1011	44.8185	45.3917	0
987	22	24	1	8	565.9036	29	1	800	1222725.9222	 0.0054	45.4023	46.2196	46.9368	47.5034	0
987	22	25	1	8	699.7494	1	0	800	1222725.9222	 0.0054	47.5207	48.3380	49.0553	49.7563	0
987	22	26	1	8	563.1366	29	1	800	1222725.9222	 0.0054	 0.0133	 0.8307	 1.5480	 2.1120	0
987	22	27	1	8	596.4855	56	1	800	1222725.9222	 0.0054	 2.1317	 2.9492	 3.6664	 4.2637	0
987	22	28	1	8	556.7446	56	1	800	1222725.9222	 0.0054	 4.2837	 5.1010	 5.8181	 6.3756	0
987	22	29	1	8	399.0685	29	1	800	1222725.9222	 0.0054	 6.3852	 7.2027	 7.9199	 8.3198	0
987	22	30	1	8	583.2961	29	1	800	1222725.9222	 0.0054	 8.3370	 9.1543	 9.8716	10.4556	0
987	23	1	1	8	443.0597	29	1	800	1222725.9222	10.4593	 0.0057	 0.8228	 1.5401	 1.9839	0
987	23	2	1	8	369.9321	29	1	800	1222725.9222	10.4593	 1.9903	 2.8078	 3.5250	 3.8957	0
987	23	3	1	8	699.7386	1	0	800	1222725.9222	10.4593	 3.9088	 4.7260	 5.4438	 6.1441	0
987	23	4	1	8	389.7337	56	1	800	1222725.9222	10.4593	 0.0189	 0.8362	 1.5535	 1.9440	0
987	23	5	1	8	486.7060	29	0	800	1222725.9222	10.4593	 1.9538	 2.7711	 3.4883	 3.9757	0
987	23	6	1	8	422.0609	56	1	800	1222725.9222	10.4593	 0.0187	 0.8361	 1.5533	 1.9761	0
987	23	7	1	8	397.5992	29	1	800	1222725.9222	10.4593	 1.9869	 2.8044	 3.5216	 3.9200	0
987	23	8	1	8	381.7943	29	1	800	1222725.9222	10.4593	 3.9386	 4.7560	 5.4733	 5.8558	0
987	23	9	1	8	518.1673	56	1	800	1222725.9222	10.4593	 5.8737	 6.6909	 7.4169	 7.9359	0
987	23	10	1	8	402.4274	56	1	800	1222725.9222	10.4593	 7.9435	 8.7593	 9.4766	 9.8797	0
987	23	11	1	8	354.9437	56	1	800	1222725.9222	10.4593	 9.8936	10.7109	11.4282	11.7839	0
987	23	12	1	8	469.2903	56	1	800	1222725.9222	10.4593	11.7952	12.6126	13.3298	13.7998	0
987	24	1	1	8	454.5966	29	1	800	1222725.9222	13.8019	 0.0103	 0.8276	 1.5449	 2.0001	0
987	24	2	1	8	548.4324	29	1	800	1222725.9222	13.8019	 2.0119	 2.8292	 3.5465	 4.0957	0
987	24	3	1	8	598.7222	29	1	800	1222725.9222	13.8019	 4.1137	 4.9310	 5.6483	 6.2478	0
987	24	4	1	8	639.1387	29	1	800	1222725.9222	13.8019	 6.2654	 7.0829	 7.8000	 8.4400	0
987	24	5	1	8	437.7603	56	1	800	1222725.9222	13.8019	 8.4507	 9.2679	 9.9853	10.4239	0
987	24	6	1	8	517.0191	29	1	800	1222725.9222	13.8019	10.4356	11.2529	11.9701	12.4879	0
987	24	7	1	8	424.4655	29	1	800	1222725.9222	13.8019	12.5039	13.3214	14.0387	14.4640	0
987	24	8	1	8	408.3472	56	1	800	1222725.9222	13.8019	14.4723	15.2896	16.0069	16.4160	0
987	24	9	1	8	488.6798	29	0	800	1222725.9222	13.8019	16.4239	17.2413	17.9585	18.4479	0
987	24	10	1	8	476.5133	29	1	800	1222725.9222	13.8019	 0.0201	 0.8375	 1.5548	 2.0320	0
987	24	11	1	8	506.3192	29	1	800	1222725.9222	13.8019	 2.0402	 2.8559	 3.5732	 4.0803	0
987	24	12	1	8	478.6822	29	1	800	1222725.9222	13.8019	 4.0902	 4.9076	 5.6249	 6.1043	0
987	24	13	1	8	603.5493	29	1	800	1222725.9222	13.8019	 6.1252	 6.9427	 7.6599	 8.2642	0
987	24	14	1	8	419.9034	56	1	800	1222725.9222	13.8019	 8.2771	 9.0944	 9.8118	10.2324	0
987	24	15	1	8	435.5836	29	1	800	1222725.9222	13.8019	10.2454	11.0627	11.7800	12.2163	0
987	24	16	1	8	602.5518	56	1	800	1222725.9222	13.8019	12.2303	13.0477	13.7650	14.3683	0
987	24	17	1	8	434.9844	56	1	800	1222725.9222	13.8019	14.3821	15.1996	15.9168	16.3524	0
987	24	18	1	8	401.5172	56	1	800	1222725.9222	13.8019	16.3671	17.1845	17.9018	18.3039	0
987	24	19	1	8	442.3285	29	1	800	1222725.9222	13.8019	18.3188	19.1362	19.8534	20.2964	0
987	24	20	1	8	432.9880	56	1	800	1222725.9222	13.8019	20.3035	21.1211	21.8384	22.2721	0
987	24	21	1	8	487.9544	29	1	800	1222725.9222	13.8019	22.2888	23.1061	23.8234	24.3121	0
987	24	22	1	8	700.0040	1	0	800	1222725.9222	13.8019	24.3238	25.1412	25.8585	26.5590	0
987	24	23	1	8	699.6399	1	0	800	1222725.9222	13.8019	 0.0209	 0.8383	 1.5556	 2.2557	0
987	24	24	1	8	496.4261	56	0	800	1222725.9222	13.8019	 0.0103	 0.8258	 1.5431	 2.0403	0
987	24	25	1	8	464.2799	29	1	800	1222725.9222	13.8019	 0.0101	 0.8256	 1.5428	 2.0078	0
987	24	26	1	8	525.8941	56	1	800	1222725.9222	13.8019	 2.0265	 2.8440	 3.5613	 4.0879	0
987	24	27	1	8	593.5909	56	1	800	1222725.9222	13.8019	 4.0950	 4.9124	 5.6295	 6.2238	0
987	24	28	1	8	626.8257	56	1	800	1222725.9222	13.8019	 6.2321	 7.0474	 7.7647	 8.3924	0
987	24	29	1	8	458.1613	56	1	800	1222725.9222	13.8019	 8.4005	 9.2159	 9.9332	10.3921	0
987	24	30	1	8	472.5506	29	1	800	1222725.9222	13.8019	10.4018	11.2175	11.9348	12.4081	0
