SUBID	BLOCK	TRIAL	REP	RUNID	RT	RESP	ACC	RSIJIT	EV_START	EV_BLOCK	EV_TRIAL	EV_RETRIEVAL	EV_PROBE	EV_RESP	EV_BLEND
200	1	1	1	1	415.0976	29	1	800	343580.6778	0.0039	0.016	0.8328	1.5497	1.9725	0
200	1	2	1	1	544.5061	29	1	800	343580.6778	0.0039	1.9995	2.8166	3.5332	4.0797	0
200	1	3	1	1	571.8666	29	1	800	343580.6778	0.0039	4.0999	4.9334	5.6503	6.2243	0
200	1	4	1	1	486.6344	29	1	800	343580.6778	0.0039	6.2503	7.0673	7.784	8.2719	0
200	1	5	1	1	467.9038	29	1	800	343580.6778	0.0039	8.3008	9.1176	9.8344	10.3036	0
200	1	6	1	1	435.159	29	1	800	343580.6778	0.0039	10.3209	11.1346	11.8514	12.2877	0
200	1	7	1	1	499.1429	29	1	800	343580.6778	0.0039	12.3047	13.1183	13.8353	14.3359	0
200	1	8	1	1	416.7595	56	1	800	343580.6778	0.0039	14.3529	15.1689	15.8857	16.3036	0
200	1	9	1	1	337.731	29	1	800	343580.6778	0.0039	16.3191	17.1359	17.8526	18.1914	0
200	1	10	1	1	517.7188	29	1	800	343580.6778	0.0039	18.2051	19.0194	19.7363	20.2554	0
200	1	11	1	1	338.4023	56	1	800	343580.6778	0.0039	20.2739	21.0866	21.8035	22.1433	0
200	1	12	1	1	343.0639	56	1	800	343580.6778	0.0039	22.1578	22.9702	23.687	24.0312	0
200	2	1	1	1	407.7908	29	1	800	343618.6686	0.0009	0.0177	0.8347	1.5514	1.9603	0
200	2	2	1	1	632.3942	29	1	800	343618.6686	0.0009	1.9847	2.8018	3.5184	4.1524	0
200	2	3	1	1	481.0416	29	1	800	343618.6686	0.0009	4.1685	4.9853	5.7021	6.1842	0
200	2	4	1	1	431.0034	29	1	800	343618.6686	0.0009	6.2022	7.019	7.7359	8.168	0
200	2	5	1	1	351.6412	29	1	800	343618.6686	0.0009	8.188	9.0029	9.7198	10.0725	0
200	2	6	1	1	339.2568	56	1	800	343618.6686	0.0009	10.0895	10.9034	11.6199	11.9602	0
200	2	7	1	1	342.7788	56	1	800	343618.6686	0.0009	11.9742	12.7869	13.5037	13.8476	0
200	2	8	1	1	419.325	56	1	800	343618.6686	0.0009	13.8703	14.6872	15.4042	15.8245	0
200	2	9	1	1	364.009	56	1	800	343618.6686	0.0009	15.8416	16.6543	17.371	17.7361	0
200	2	10	1	1	342.6441	56	1	800	343618.6686	0.0009	17.7544	18.5713	19.2881	19.6319	0
200	2	11	1	1	386.6641	29	1	800	343618.6686	0.0009	19.6547	20.4717	21.1885	21.5762	0
200	2	12	1	1	333.0719	56	1	800	343618.6686	0.0009	21.5883	22.4054	23.1223	23.4564	0
200	2	13	1	1	601.0588	56	1	800	343618.6686	0.0009	23.4762	24.2891	25.006	25.6082	0
200	2	14	1	1	362.8289	56	1	800	343618.6686	0.0009	25.6251	26.4395	27.1564	27.5205	0
200	2	15	1	1	333.8947	56	1	800	343618.6686	0.0009	27.5396	28.3565	29.0732	29.4082	0
200	2	16	1	1	530.1194	29	1	800	343618.6686	0.0009	29.4261	30.2401	30.957	31.4882	0
200	2	17	1	1	670.1671	29	1	800	343618.6686	0.0009	31.507	32.3239	33.0407	33.7122	0
200	2	18	1	1	517.7226	29	1	800	343618.6686	0.0009	33.727	34.5411	35.2577	35.7764	0
200	2	19	1	1	449.4995	29	1	800	343618.6686	0.0009	35.7915	36.608	37.3249	37.7758	0
200	2	20	1	1	393.5266	56	1	800	343618.6686	0.0009	37.7958	38.6086	39.3252	39.7197	0
200	2	21	1	1	314.9692	56	1	800	343618.6686	0.0009	39.742	40.5588	41.2756	41.5918	0
200	2	22	1	1	352.1089	29	1	800	343618.6686	0.0009	41.609	42.4259	43.1427	43.4958	0
200	2	23	1	1	467.4603	56	1	800	343618.6686	0.0009	43.5135	44.3262	45.0431	45.5119	0
200	2	24	1	1	371.22	29	1	800	343618.6686	0.0009	45.5295	46.3434	47.06	47.4323	0
200	2	25	1	1	398.2576	29	1	800	343618.6686	0.0009	47.4475	48.2603	48.9771	49.3764	0
200	2	26	1	1	431.8815	29	1	800	343618.6686	0.0009	49.394	50.2107	50.9274	51.3603	0
200	2	27	1	1	343.8445	56	1	800	343618.6686	0.0009	51.3775	52.1944	52.9112	53.2561	0
200	2	28	1	1	618.8683	29	0	800	343618.6686	0.0009	53.2781	54.0947	54.8116	55.4318	0
200	2	29	1	1	376.0583	56	0	800	343618.6686	0.0009	0.0258	0.8426	1.5594	1.9364	0
200	2	30	1	1	462.6112	56	1	800	343618.6686	0.0009	0.0258	0.8427	1.5596	2.0235	0
200	3	1	1	1	617.8189	29	1	800	343699.7177	0.0011	0.0175	0.8323	1.549	2.1681	0
200	3	2	1	1	322.6383	56	1	800	343699.7177	0.0011	2.1855	2.9994	3.7161	4.0399	0
200	3	3	1	1	359.9827	56	1	800	343699.7177	0.0011	4.0546	4.8663	5.5831	5.9441	0
200	3	4	1	1	419.0409	29	1	800	343699.7177	0.0011	5.9665	6.7834	7.5002	7.9202	0
200	3	5	1	1	603.247	29	1	800	343699.7177	0.0011	7.9384	8.7504	9.4672	10.0716	0
200	3	6	1	1	381.5208	56	1	800	343699.7177	0.0011	10.0842	10.9009	11.6176	12.0001	0
200	3	7	1	1	494.9937	29	1	800	343699.7177	0.0011	12.0208	12.8345	13.5514	14.0477	0
200	3	8	1	1	333.2194	56	1	800	343699.7177	0.0011	14.0681	14.8849	15.6017	15.9359	0
200	3	9	1	1	561.9051	29	1	800	343699.7177	0.0011	15.9516	16.7687	17.4854	18.0482	0
200	3	10	1	1	292.2311	56	1	800	343699.7177	0.0011	18.0689	18.8858	19.6025	19.8957	0
200	3	11	1	1	530.3018	29	1	800	343699.7177	0.0011	19.9193	20.736	21.4528	21.9841	0
200	3	12	1	1	366.6453	56	1	800	343699.7177	0.0011	22.0029	22.8198	23.5365	23.9043	0
200	4	1	1	2	464.8673	56	1	800	343739.5118	0.0007	0.0176	0.8336	1.5505	2.0163	0
200	4	2	1	2	383.6923	29	1	800	343739.5118	0.0007	2.0337	2.8506	3.5675	3.9522	0
200	4	3	1	2	394.1159	29	1	800	343739.5118	0.0007	3.9674	4.7843	5.5012	5.8962	0
200	4	4	1	2	323.4527	56	1	800	343739.5118	0.0007	5.9179	6.7348	7.4516	7.7761	0
200	4	5	1	2	336.1081	56	0	800	343739.5118	0.0007	7.8017	8.6184	9.3352	9.6722	0
200	4	6	1	2	334.6032	56	1	800	343739.5118	0.0007	0.0153	0.827	1.5437	1.8793	0
200	4	7	1	2	331.3426	56	1	800	343739.5118	0.0007	1.8938	2.7107	3.4275	3.76	0
200	4	8	1	2	479.128	29	1	800	343739.5118	0.0007	3.7779	4.5944	5.3111	5.7914	0
200	4	9	1	2	373.3958	56	1	800	343739.5118	0.0007	5.8158	6.6282	7.3449	7.7195	0
200	4	10	1	2	336.5498	56	1	800	343739.5118	0.0007	7.7506	8.5618	9.2786	9.6161	0
200	4	11	1	2	508.1501	29	1	800	343739.5118	0.0007	9.6328	10.4455	11.1624	11.6716	0
200	4	12	1	2	577.3244	56	1	800	343739.5118	0.0007	11.6986	12.5126	13.2294	13.8077	0
200	4	13	1	2	460.0932	56	1	800	343739.5118	0.0007	13.8296	14.6465	15.3631	15.8241	0
200	4	14	1	2	466.958	29	1	800	343739.5118	0.0007	15.8471	16.6633	17.3802	17.8481	0
200	4	15	1	2	385.9757	29	1	800	343739.5118	0.0007	17.8699	18.6805	19.3973	19.7842	0
200	4	16	1	2	395.3602	29	1	800	343739.5118	0.0007	19.803	20.6143	21.331	21.7276	0
200	4	17	1	2	317.5075	56	1	800	343739.5118	0.0007	21.7478	22.5645	23.2815	23.6	0
200	4	18	1	2	346.8714	56	1	800	343739.5118	0.0007	23.6203	24.4315	25.1484	25.4962	0
200	4	19	1	2	382.2645	56	1	800	343739.5118	0.0007	25.516	26.3319	27.0487	27.432	0
200	4	20	1	2	576.4169	29	1	800	343739.5118	0.0007	27.4512	28.2656	28.9824	29.5599	0
200	4	21	1	2	395.1804	29	1	800	343739.5118	0.0007	29.5825	30.3994	31.1161	31.5123	0
200	4	22	1	2	371.8486	29	1	800	343739.5118	0.0007	31.533	32.3497	33.0667	33.4398	0
200	4	23	1	2	422.9164	56	1	800	343739.5118	0.0007	33.4707	34.2834	35.0002	35.4241	0
200	4	24	1	2	334.1638	29	1	800	343739.5118	0.0007	35.4525	36.2671	36.9841	37.3196	0
200	4	25	1	2	402.7744	29	1	800	343739.5118	0.0007	37.3375	38.1509	38.8676	39.2716	0
200	4	26	1	2	421.3658	29	1	800	343739.5118	0.0007	39.2843	40.1012	40.818	41.2403	0
200	4	27	1	2	341.9908	29	1	800	343739.5118	0.0007	41.2581	42.0683	42.785	43.128	0
200	4	28	1	2	385.6142	29	1	800	343739.5118	0.0007	43.157	43.9687	44.6854	45.072	0
200	4	29	1	2	356.0772	56	1	800	343739.5118	0.0007	45.091	45.9023	46.6192	46.9762	0
200	4	30	1	2	374.9253	56	1	800	343739.5118	0.0007	47.0038	47.8193	48.5362	48.9123	0
200	5	1	1	2	346.9324	56	1	800	343924.8609	0.0008	0.0108	0.8237	1.5404	1.8885	0
200	5	2	1	2	389.8398	29	1	800	343924.8609	0.0008	1.9104	2.724	3.4408	3.8317	0
200	5	3	1	2	496.1804	56	1	800	343924.8609	0.0008	3.8611	4.6743	5.3912	5.8883	0
200	5	4	1	2	341.038	56	1	800	343924.8609	0.0008	5.9078	6.7247	7.4417	7.7838	0
200	5	5	1	2	289.0471	56	1	800	343924.8609	0.0008	7.8081	8.6253	9.3419	9.632	0
200	5	6	1	2	471.1793	29	0	800	343924.8609	0.0008	9.6603	10.4755	11.1923	11.6645	0
200	5	7	1	2	519.9531	29	1	800	343924.8609	0.0008	0.0297	0.8427	1.5595	2.0806	0
200	5	8	1	2	364.4331	56	1	800	343924.8609	0.0008	2.0937	2.9098	3.6267	3.992	0
200	5	9	1	2	415.6615	56	1	800	343924.8609	0.0008	4.0119	4.8269	5.5437	5.9606	0
200	5	10	1	2	280.8527	56	1	800	343924.8609	0.0008	5.9821	6.7939	7.5107	7.7925	0
200	5	11	1	2	502.5355	29	1	800	343924.8609	0.0008	7.8123	8.6276	9.3445	9.8481	0
200	5	12	1	2	436.3263	56	1	800	343924.8609	0.0008	9.8664	10.678	11.3948	11.8322	0
200	5	1	2	2	442.4163	29	1	800	343924.8609	0.0008	0.0104	0.8242	1.541	1.9844	11.8343
200	5	2	2	2	290.5304	56	1	800	343924.8609	0.0008	2.0079	2.8249	3.5414	3.8329	11.8343
200	5	3	2	2	431.2022	56	1	800	343924.8609	0.0008	3.8602	4.675	5.3918	5.8241	11.8343
200	5	4	2	2	303.5982	56	1	800	343924.8609	0.0008	5.8418	6.6587	7.3755	7.6802	11.8343
200	5	5	2	2	461.501	29	1	800	343924.8609	0.0008	7.6936	8.5091	9.2258	9.6882	11.8343
200	5	6	2	2	372.633	56	1	800	343924.8609	0.0008	9.7092	10.526	11.2429	11.6167	11.8343
200	5	7	2	2	343.3603	56	1	800	343924.8609	0.0008	11.6311	12.4431	13.16	13.5044	11.8343
200	5	8	2	2	331.4348	56	1	800	343924.8609	0.0008	13.5265	14.3434	15.0603	15.3928	11.8343
200	5	9	2	2	431.3784	29	1	800	343924.8609	0.0008	15.4101	16.2272	16.9439	17.3763	11.8343
200	5	10	2	2	280.109	56	1	800	343924.8609	0.0008	17.3959	18.211	18.9276	19.2087	11.8343
200	5	11	2	2	326.1314	56	1	800	343924.8609	0.0008	19.2282	20.0445	20.7613	21.0887	11.8343
200	5	12	2	2	513.9657	29	1	800	343924.8609	0.0008	21.112	21.9283	22.6451	23.1603	11.8343
200	6	1	1	2	344.9343	56	1	800	343998.2264	0.001	0.0097	0.8242	1.541	1.8869	0
200	6	2	1	2	437.0347	29	1	800	343998.2264	0.001	1.9083	2.7245	3.4415	3.8795	0
200	6	3	1	2	461.2629	29	1	800	343998.2264	0.001	3.896	4.7081	5.425	5.8876	0
200	6	4	1	2	356.6175	29	1	800	343998.2264	0.001	5.909	6.7253	7.4421	7.7996	0
200	6	5	1	2	407.4669	29	1	800	343998.2264	0.001	7.8261	8.6423	9.3592	9.7676	0
200	6	6	1	2	416.53	56	1	800	343998.2264	0.001	9.7928	10.6093	11.3262	11.7437	0
200	6	7	1	2	489.5198	29	1	800	343998.2264	0.001	11.761	12.5763	13.2932	13.7836	0
200	6	8	1	2	430.4665	29	1	800	343998.2264	0.001	13.8099	14.6268	15.3436	15.7754	0
200	6	9	1	2	423.3209	29	1	800	343998.2264	0.001	15.7983	16.6104	17.3273	17.7516	0
200	6	10	1	2	344.0029	56	1	800	343998.2264	0.001	17.7824	18.5942	19.311	19.6559	0
200	6	11	1	2	354.8353	56	1	800	343998.2264	0.001	19.6784	20.4946	21.2113	21.5671	0
200	6	12	1	2	399.3559	29	1	800	343998.2264	0.001	21.5788	22.395	23.1117	23.512	0
200	6	13	1	2	328.6104	56	1	800	343998.2264	0.001	23.5321	24.3452	25.062	25.3917	0
200	6	14	1	2	397.0933	56	1	800	343998.2264	0.001	25.4123	26.229	26.9458	27.3438	0
200	6	15	1	2	390.491	29	1	800	343998.2264	0.001	27.3664	28.1794	28.8961	29.2876	0
200	6	16	1	2	303.8882	56	1	800	343998.2264	0.001	29.3168	30.1297	30.8465	31.1514	0
200	6	17	1	2	397.4946	56	1	800	343998.2264	0.001	31.1638	31.9801	32.6968	33.0953	0
200	6	18	1	2	383.7882	56	1	800	343998.2264	0.001	33.1174	33.9304	34.6472	35.0319	0
200	6	19	1	2	345.4917	56	1	800	343998.2264	0.001	35.0488	35.8641	36.5809	36.9276	0
200	6	20	1	2	325.4893	56	1	800	343998.2264	0.001	36.9505	37.7645	38.4814	38.8081	0
200	6	21	1	2	401.1683	29	1	800	343998.2264	0.001	38.8321	39.6482	40.3649	40.767	0
200	6	22	1	2	315.214	56	1	800	343998.2264	0.001	40.7856	41.5986	42.3154	42.6316	0
200	6	23	1	2	368.043	29	1	800	343998.2264	0.001	42.6544	43.4655	44.1823	44.5516	0
200	6	24	1	2	378.8759	56	1	800	343998.2264	0.001	44.5665	45.3826	46.0994	46.4793	0
200	6	25	1	2	365.2889	56	1	800	343998.2264	0.001	46.5003	47.3163	48.0331	48.3995	0
200	6	26	1	2	328.0155	56	1	800	343998.2264	0.001	48.4208	49.2333	49.9502	50.2793	0
200	6	27	1	2	381.0601	29	1	800	343998.2264	0.001	50.3	51.117	51.8338	52.2158	0
200	6	28	1	2	303.4832	56	1	800	343998.2264	0.001	52.2379	53.0508	53.7675	54.0719	0
200	6	29	1	2	340.557	56	1	800	343998.2264	0.001	54.0849	54.9012	55.6179	55.9595	0
200	6	30	1	2	568.0099	29	1	800	343998.2264	0.001	55.9849	56.8014	57.5182	58.0873	0
200	7	1	1	3	322.2172	56	1	800	344064.2367	0.0008	0.0104	0.8236	1.5404	1.8636	0
200	7	2	1	3	366.8632	29	0	800	344064.2367	0.0008	1.8936	2.7072	3.4241	3.7921	0
200	7	3	1	3	699.4383	1	0	800	344064.2367	0.0008	0.0213	0.8343	1.5512	2.2523	0
200	7	4	1	3	421.6706	29	1	800	344064.2367	0.0008	0.0222	0.8367	1.5535	1.9761	0
200	7	5	1	3	662.1663	29	1	800	344064.2367	0.0008	1.9873	2.8037	3.5206	4.1837	0
200	7	6	1	3	508.7181	29	1	800	344064.2367	0.0008	4.2042	5.0209	5.7376	6.2474	0
200	7	7	1	3	699.5642	1	0	800	344064.2367	0.0008	6.2715	7.0879	7.8047	8.5051	0
200	7	8	1	3	38.6391	56	1	800	344064.2367	0.0008	0.028	0.8434	1.5601	1.5997	0
200	7	9	1	3	699.8123	1	0	800	344064.2367	0.0008	1.6114	2.427	3.1438	3.8445	0
200	7	10	1	3	533.0822	29	1	800	344064.2367	0.0008	0.0315	0.8445	1.5614	2.0957	0
200	7	11	1	3	490.0409	29	1	800	344064.2367	0.0008	2.1113	2.9282	3.6452	4.1362	0
200	7	12	1	3	359.0263	56	1	800	344064.2367	0.0008	4.1635	4.9786	5.6954	6.0554	0
200	7	1	2	3	348.8828	56	1	800	344064.2367	0.0008	0.0149	0.829	1.5456	1.8955	6.0576
200	7	2	2	3	352.6376	56	1	800	344064.2367	0.0008	1.9179	2.7293	3.4461	3.7998	6.0576
200	7	3	2	3	364.4691	29	1	800	344064.2367	0.0008	3.8132	4.6296	5.3464	5.7119	6.0576
200	7	4	2	3	447.6528	29	1	800	344064.2367	0.0008	5.7336	6.5512	7.2634	7.7122	6.0576
200	7	5	2	3	390.3605	56	1	800	344064.2367	0.0008	7.7332	8.547	9.2638	9.6554	6.0576
200	7	6	2	3	448.8486	29	1	800	344064.2367	0.0008	9.6807	10.4974	11.2142	11.664	6.0576
200	7	7	2	3	448.5118	29	1	800	344064.2367	0.0008	11.6859	12.4979	13.2145	13.6639	6.0576
200	7	8	2	3	295.5034	56	0	800	344064.2367	0.0008	13.6867	14.4981	15.215	15.5115	6.0576
200	7	9	2	3	379.241	56	1	800	344064.2367	0.0008	0.0155	0.8302	1.5471	1.9274	6.0576
200	7	10	2	3	310.1575	56	1	800	344064.2367	0.0008	1.9488	2.764	3.4807	3.7918	6.0576
200	7	11	2	3	587.0409	29	1	800	344064.2367	0.0008	3.8143	4.631	5.3478	5.9358	6.0576
200	7	12	2	3	437.3663	29	1	800	344064.2367	0.0008	5.9479	6.7646	7.4815	7.9199	6.0576
200	7	1	3	3	357.5565	56	1	800	344064.2367	0.0008	0.0121	0.8283	1.5451	1.9038	7.922
200	7	2	3	3	352.3307	56	1	800	344064.2367	0.0008	1.9288	2.7453	3.462	3.8155	7.922
200	7	3	3	3	356.6667	29	1	800	344064.2367	0.0008	3.8327	4.6456	5.3624	5.72	7.922
200	7	4	3	3	399.0569	29	1	800	344064.2367	0.0008	5.7488	6.5627	7.2795	7.6797	7.922
200	7	5	3	3	312.8709	56	1	800	344064.2367	0.0008	7.702	8.5129	9.2298	9.544	7.922
200	7	6	3	3	382.1585	29	1	800	344064.2367	0.0008	9.5653	10.3799	11.0968	11.48	7.922
200	7	7	3	3	416.2751	29	1	800	344064.2367	0.0008	11.501	12.3138	13.0306	13.4478	7.922
200	7	8	3	3	297.5184	56	1	800	344064.2367	0.0008	13.4681	14.2808	14.9976	15.296	7.922
200	7	9	3	3	391.2309	29	1	800	344064.2367	0.0008	15.318	16.1312	16.8479	17.2401	7.922
200	7	10	3	3	360.5309	29	1	800	344064.2367	0.0008	17.2654	18.0815	18.7983	19.1599	7.922
200	7	11	3	3	307.6071	56	1	800	344064.2367	0.0008	19.1822	19.9986	20.7154	21.024	7.922
200	7	12	3	3	288.4636	56	1	800	344064.2367	0.0008	21.0487	21.8655	22.5823	22.8718	7.922
200	8	1	1	3	564.8894	56	1	800	344166.8239	0.0007	0.0219	0.8374	1.5542	2.12	0
200	8	2	1	3	319.7941	56	1	800	344166.8239	0.0007	2.1416	2.9544	3.6712	3.9921	0
200	8	3	1	3	437.5594	29	1	800	344166.8239	0.0007	4.0047	4.8214	5.5382	5.9768	0
200	8	4	1	3	405.7926	29	1	800	344166.8239	0.0007	5.9913	6.8053	7.522	7.9287	0
200	8	5	1	3	382.5844	29	1	800	344166.8239	0.0007	7.9395	8.7555	9.4725	9.8563	0
200	8	6	1	3	409.2297	29	1	800	344166.8239	0.0007	9.8783	10.6892	11.406	11.8163	0
200	8	7	1	3	338.1111	56	1	800	344166.8239	0.0007	11.8396	12.6562	13.373	13.7122	0
200	8	8	1	3	311.2689	56	1	800	344166.8239	0.0007	13.7236	14.54	15.2568	15.5693	0
200	8	9	1	3	331.0582	56	1	800	344166.8239	0.0007	15.5911	16.407	17.1238	17.4561	0
200	8	10	1	3	455.2784	56	1	800	344166.8239	0.0007	17.4779	18.2906	19.0075	19.4638	0
200	8	11	1	3	350.8219	29	1	800	344166.8239	0.0007	19.4908	20.3077	21.0246	21.3765	0
200	8	12	1	3	506.8654	29	1	800	344166.8239	0.0007	21.3966	22.2082	22.9249	23.4327	0
200	8	13	1	3	494.8303	29	1	800	344166.8239	0.0007	23.4626	24.2751	24.9919	25.4878	0
200	8	14	1	3	325.3844	56	1	800	344166.8239	0.0007	25.511	26.3255	27.0424	27.3691	0
200	8	15	1	3	369.4325	29	1	800	344166.8239	0.0007	27.3925	28.2092	28.926	29.2964	0
200	8	16	1	3	348.7284	56	1	800	344166.8239	0.0007	29.314	30.1262	30.8431	31.1927	0
200	8	17	1	3	368.2622	56	1	800	344166.8239	0.0007	31.2138	32.0267	32.7434	33.1126	0
200	8	18	1	3	323.0254	56	1	800	344166.8239	0.0007	33.1273	33.9437	34.6604	34.9844	0
200	8	19	1	3	382.7449	56	1	800	344166.8239	0.0007	35.0116	35.8274	36.5442	36.9283	0
200	8	20	1	3	648.9861	29	1	800	344166.8239	0.0007	36.9501	37.761	38.4778	39.128	0
200	8	21	1	3	416.9986	56	1	800	344166.8239	0.0007	39.1503	39.9614	40.6782	41.0963	0
200	8	22	1	3	385.5849	56	1	800	344166.8239	0.0007	41.1179	41.9285	42.6454	43.032	0
200	8	23	1	3	379.7532	29	1	800	344166.8239	0.0007	43.0455	43.8621	44.579	44.9601	0
200	8	24	1	3	398.5957	56	1	800	344166.8239	0.0007	44.9817	45.7959	46.5129	46.9124	0
200	8	25	1	3	432.2733	56	1	800	344166.8239	0.0007	46.9333	47.7462	48.4631	48.8965	0
200	8	26	1	3	552.6488	29	1	800	344166.8239	0.0007	48.9172	49.73	50.4468	51.0005	0
200	8	27	1	3	476.1881	29	1	800	344166.8239	0.0007	51.0149	51.8304	52.5472	53.0243	0
200	8	28	1	3	378.6778	29	1	800	344166.8239	0.0007	53.0474	53.8641	54.581	54.9606	0
200	8	29	1	3	373.1606	29	1	800	344166.8239	0.0007	54.983	55.7977	56.5146	56.8887	0
200	8	30	1	3	399.2905	56	1	800	344166.8239	0.0007	56.9185	57.7316	58.4483	58.8486	0
200	9	1	1	3	699.6541	1	0	800	344232.1186	0.0008	0.0216	0.8376	1.5544	2.2548	0
200	9	2	1	3	387.4037	56	1	800	344232.1186	0.0008	0.0223	0.8385	1.5553	1.9437	0
200	9	3	1	3	454.2612	56	1	800	344232.1186	0.0008	1.9554	2.7722	3.489	3.9442	0
200	9	4	1	3	421.1974	56	1	800	344232.1186	0.0008	3.9595	4.7726	5.4894	5.9116	0
200	9	5	1	3	518.2798	56	0	800	344232.1186	0.0008	5.923	6.7397	7.4565	7.9759	0
200	9	6	1	3	438.561	56	1	800	344232.1186	0.0008	0.0293	0.8439	1.5609	2.0005	0
200	9	7	1	3	398.9143	29	1	800	344232.1186	0.0008	2.0122	2.8277	3.5445	3.9445	0
200	9	8	1	3	367.9276	56	1	800	344232.1186	0.0008	3.967	4.7782	5.4948	5.864	0
200	9	9	1	3	459.5186	29	1	800	344232.1186	0.0008	5.8804	6.6951	7.4119	7.8723	0
200	9	10	1	3	426.4164	29	1	800	344232.1186	0.0008	7.8957	8.7121	9.4289	9.8563	0
200	9	11	1	3	386.7277	29	1	800	344232.1186	0.0008	9.8794	10.6959	11.4127	11.8004	0
200	9	12	1	3	468.9823	56	1	800	344232.1186	0.0008	11.8126	12.6296	13.3464	13.8163	0
200	9	1	2	3	379.6486	56	1	800	344232.1186	0.0008	0.0105	0.8222	1.539	1.9198	13.8185
200	9	2	2	3	438.5584	29	1	800	344232.1186	0.0008	1.9428	2.756	3.4727	3.9122	13.8185
200	9	3	2	3	430.9065	29	1	800	344232.1186	0.0008	3.9236	4.7397	5.4565	5.8884	13.8185
200	9	4	2	3	455.1782	29	1	800	344232.1186	0.0008	5.9102	6.7234	7.4401	7.8963	13.8185
200	9	5	2	3	278.5372	56	1	800	344232.1186	0.0008	7.9072	8.7238	9.4406	9.7201	13.8185
200	9	6	2	3	428.7449	29	1	800	344232.1186	0.0008	9.743	10.5575	11.2745	11.7042	13.8185
200	9	7	2	3	389.3098	56	1	800	344232.1186	0.0008	11.7253	12.5412	13.258	13.6483	13.8185
200	9	8	2	3	350.4041	56	1	800	344232.1186	0.0008	13.6784	14.4916	15.2084	15.5599	13.8185
200	9	9	2	3	305.7427	56	1	800	344232.1186	0.0008	15.5814	16.392	17.1088	17.4156	13.8185
200	9	10	2	3	390.9634	29	1	800	344232.1186	0.0008	17.443	18.2588	18.9757	19.3678	13.8185
200	9	11	2	3	344.934	56	1	800	344232.1186	0.0008	19.3931	20.2092	20.9261	21.2719	13.8185
200	9	12	2	3	580.8571	29	1	800	344232.1186	0.0008	21.2941	22.1098	22.8264	23.4082	13.8185
200	10	1	1	4	395.1123	56	1	800	344293.1972	0.001	0.021	0.8307	1.5475	1.9436	0
200	10	2	1	4	381.3175	29	1	800	344293.1972	0.001	1.9664	2.781	3.4978	3.8801	0
200	10	3	1	4	407.4569	29	1	800	344293.1972	0.001	3.9025	4.7149	5.4316	5.84	0
200	10	4	1	4	408.084	29	1	800	344293.1972	0.001	5.8651	6.6817	7.3986	7.8076	0
200	10	5	1	4	345.4251	56	1	800	344293.1972	0.001	7.8322	8.6487	9.3655	9.7119	0
200	10	6	1	4	412.732	29	1	800	344293.1972	0.001	9.7325	10.5491	11.2659	11.6796	0
200	10	7	1	4	349.2684	56	1	800	344293.1972	0.001	11.7013	12.5162	13.233	13.5834	0
200	10	8	1	4	385.0261	56	1	800	344293.1972	0.001	13.6045	14.4165	15.1333	15.5195	0
200	10	9	1	4	403.1461	29	1	800	344293.1972	0.001	15.538	16.3504	17.0671	17.4715	0
200	10	10	1	4	349.1673	29	1	800	344293.1972	0.001	17.4842	18.3006	19.0174	19.3676	0
200	10	11	1	4	313.2572	56	1	800	344293.1972	0.001	19.3902	20.201	20.9178	21.232	0
200	10	12	1	4	405.5783	56	1	800	344293.1972	0.001	21.2542	22.0681	22.7848	23.1916	0
200	10	13	1	4	367.0024	29	1	800	344293.1972	0.001	23.2183	24.035	24.7519	25.1199	0
200	10	14	1	4	553.8089	56	1	800	344293.1972	0.001	25.1397	25.9521	26.6688	27.2237	0
200	10	15	1	4	413.7868	29	1	800	344293.1972	0.001	27.236	28.0524	28.7693	29.1841	0
200	10	16	1	4	342.4759	56	1	800	344293.1972	0.001	29.2063	30.0196	30.7364	31.0799	0
200	10	17	1	4	345.6447	56	1	800	344293.1972	0.001	31.1033	31.9199	32.6366	32.9835	0
200	10	18	1	4	382.1676	56	1	800	344293.1972	0.001	33.004	33.8202	34.537	34.9201	0
200	10	19	1	4	336.351	56	1	800	344293.1972	0.001	34.9411	35.754	36.4708	36.8081	0
200	10	20	1	4	483.7543	29	1	800	344293.1972	0.001	36.8227	37.6377	38.3545	38.8396	0
200	10	21	1	4	394.8242	29	1	800	344293.1972	0.001	38.8619	39.6714	40.3883	40.7842	0
200	10	22	1	4	372.4898	56	1	800	344293.1972	0.001	40.8057	41.6217	42.3385	42.7125	0
200	10	23	1	4	374.8511	29	1	800	344293.1972	0.001	42.744	43.5555	44.2722	44.648	0
200	10	24	1	4	504.4626	56	0	800	344293.1972	0.001	44.6723	45.4892	46.2059	46.7115	0
200	10	25	1	4	514.1673	29	1	800	344293.1972	0.001	0.0235	0.8404	1.5572	2.0723	0
200	10	26	1	4	463.2109	56	1	800	344293.1972	0.001	2.0947	2.9075	3.6242	4.0884	0
200	10	27	1	4	334.124	56	1	800	344293.1972	0.001	4.1108	4.9245	5.6413	5.9764	0
200	10	28	1	4	394.3832	56	1	800	344293.1972	0.001	5.9928	6.8082	7.5251	7.9205	0
200	10	29	1	4	308.0046	56	1	800	344293.1972	0.001	7.9419	8.7587	9.4754	9.7843	0
200	10	30	1	4	480.2458	29	1	800	344293.1972	0.001	9.8085	10.6255	11.3425	11.8239	0
200	11	1	1	4	329.3281	56	1	800	344358.8769	0.0008	0.0087	0.8243	1.5411	1.8715	0
200	11	2	1	4	349.3914	56	1	800	344358.8769	0.0008	1.8942	2.7079	3.4249	3.7755	0
200	11	3	1	4	481.7479	29	1	800	344358.8769	0.0008	3.7978	4.6083	5.3253	5.808	0
200	11	4	1	4	391.6502	29	1	800	344358.8769	0.0008	5.8294	6.6421	7.359	7.7517	0
200	11	5	1	4	457.3808	29	1	800	344358.8769	0.0008	7.7762	8.5925	9.3092	9.7676	0
200	11	6	1	4	360.4519	29	1	800	344358.8769	0.0008	9.7927	10.6095	11.3263	11.6878	0
200	11	7	1	4	419.6827	29	1	800	344358.8769	0.0008	11.7104	12.5266	13.2433	13.664	0
200	11	8	1	4	372.3715	29	1	800	344358.8769	0.0008	13.6767	14.4935	15.2105	15.5839	0
200	11	9	1	4	398.6283	56	1	800	344358.8769	0.0008	15.6121	16.4272	17.1441	17.5437	0
200	11	10	1	4	392.5758	56	1	800	344358.8769	0.0008	17.5658	18.3776	19.0946	19.4881	0
200	11	11	1	4	449.4747	56	1	800	344358.8769	0.0008	19.5111	20.328	21.0448	21.4955	0
200	11	12	1	4	353.924	56	1	800	344358.8769	0.0008	21.518	22.3283	23.0453	23.4008	0
200	12	1	1	4	395.4303	56	1	800	344396.3336	0.0008	0.0214	0.8311	1.548	1.9443	0
200	12	2	1	4	356.9743	29	1	800	344396.3336	0.0008	1.9664	2.7815	3.4983	3.8563	0
200	12	3	1	4	471.7093	56	1	800	344396.3336	0.0008	3.8858	4.6985	5.4153	5.8881	0
200	12	4	1	4	478.8746	29	1	800	344396.3336	0.0008	5.8994	6.7155	7.4323	7.9122	0
200	12	5	1	4	429.0208	29	1	800	344396.3336	0.0008	7.9326	8.7492	9.4661	9.896	0
200	12	6	1	4	381.4459	29	1	800	344396.3336	0.0008	9.9173	10.7329	11.4497	11.8322	0
200	12	7	1	4	392.0471	29	1	800	344396.3336	0.0008	11.8548	12.6667	13.3835	13.7767	0
200	12	8	1	4	313.3353	56	0	800	344396.3336	0.0008	13.8011	14.6171	15.334	15.6484	0
200	12	9	1	4	453.7136	56	1	800	344396.3336	0.0008	0.0121	0.8288	1.5456	2.0003	0
200	12	10	1	4	693.2244	29	1	800	344396.3336	0.0008	2.0158	2.8293	3.5461	4.2402	0
200	12	11	1	4	506.0854	29	0	800	344396.3336	0.0008	4.2635	5.0797	5.7965	6.3038	0
200	12	12	1	4	474.2819	29	1	800	344396.3336	0.0008	0.0229	0.8396	1.5564	2.0316	0
200	12	13	1	4	698.669	1	0	800	344396.3336	0.0008	2.0569	2.8733	3.5901	4.2904	0
200	12	14	1	4	466.4765	56	1	800	344396.3336	0.0008	0.0242	0.8403	1.5572	2.0245	0
200	12	15	1	4	424.6382	56	1	800	344396.3336	0.0008	2.046	2.8574	3.5741	3.9998	0
200	12	16	1	4	433.2622	56	1	800	344396.3336	0.0008	4.0284	4.8411	5.5579	5.9922	0
200	12	17	1	4	417.397	29	1	800	344396.3336	0.0008	6.008	6.825	7.5416	7.9601	0
200	12	18	1	4	410.8677	29	1	800	344396.3336	0.0008	7.975	8.7919	9.5086	9.9204	0
200	12	19	1	4	539.8769	56	1	800	344396.3336	0.0008	9.9422	10.759	11.4757	12.0165	0
200	12	20	1	4	575.1429	29	1	800	344396.3336	0.0008	12.0439	12.8593	13.576	14.1521	0
200	12	21	1	4	432.9076	56	1	800	344396.3336	0.0008	14.1766	14.9932	15.7099	16.1439	0
200	12	22	1	4	305.0241	56	1	800	344396.3336	0.0008	16.1661	16.9767	17.6937	17.9999	0
200	12	23	1	4	310.883	56	1	800	344396.3336	0.0008	18.0111	18.8271	19.544	19.856	0
200	12	24	1	4	331.6595	56	1	800	344396.3336	0.0008	19.8789	20.6941	21.411	21.7439	0
200	12	25	1	4	344.6685	56	1	800	344396.3336	0.0008	21.7651	22.5778	23.2946	23.6402	0
200	12	26	1	4	419.7953	29	1	800	344396.3336	0.0008	23.6624	24.4781	25.1951	25.616	0
200	12	27	1	4	396.6591	29	1	800	344396.3336	0.0008	25.6318	26.4452	27.162	27.5599	0
200	12	28	1	4	278.7192	56	1	800	344396.3336	0.0008	27.5833	28.3955	29.1123	29.3921	0
200	12	29	1	4	293.4831	56	1	800	344396.3336	0.0008	29.4128	30.2293	30.9461	31.2405	0
200	12	30	1	4	362.9153	29	1	800	344396.3336	0.0008	31.2629	32.0796	32.7964	33.1606	0
200	13	1	1	5	434.7202	29	1	800	344474.8483	0.0008	0.0215	0.8306	1.5475	1.9833	0
200	13	2	1	5	419.2655	29	1	800	344474.8483	0.0008	1.9998	2.8143	3.5312	3.9515	0
200	13	3	1	5	357.1342	56	1	800	344474.8483	0.0008	3.9652	4.7813	5.4981	5.8562	0
200	13	4	1	5	399.5149	56	1	800	344474.8483	0.0008	5.8862	6.6984	7.4153	7.8158	0
200	13	5	1	5	393.3676	29	1	800	344474.8483	0.0008	7.8374	8.6488	9.3656	9.76	0
200	13	6	1	5	482.2971	29	1	800	344474.8483	0.0008	9.7831	10.5992	11.3159	11.7994	0
200	13	7	1	5	393.2897	56	1	800	344474.8483	0.0008	11.8203	12.6329	13.3496	13.7441	0
200	13	8	1	5	330.5114	29	1	800	344474.8483	0.0008	13.7663	14.5832	15.3	15.6316	0
200	13	9	1	5	375.1402	29	1	800	344474.8483	0.0008	15.6543	16.467	17.1837	17.5598	0
200	13	10	1	5	321.2339	56	1	800	344474.8483	0.0008	17.584	18.4006	19.1174	19.4397	0
200	13	11	1	5	374.3372	56	1	800	344474.8483	0.0008	19.4512	20.2677	20.9844	21.36	0
200	13	12	1	5	305.0899	56	1	800	344474.8483	0.0008	21.3847	22.2014	22.9181	23.2243	0
200	14	1	1	5	334.0897	56	1	800	344522.6576	0.0007	0.0114	0.8274	1.5444	1.8797	0
200	14	2	1	5	402.7959	56	1	800	344522.6576	0.0007	1.8981	2.7112	3.428	3.8319	0
200	14	3	1	5	396.6259	29	1	800	344522.6576	0.0007	3.8451	4.6616	5.3784	5.7762	0
200	14	4	1	5	405.8021	29	1	800	344522.6576	0.0007	5.7987	6.6119	7.3288	7.7357	0
200	14	5	1	5	375.4118	56	1	800	344522.6576	0.0007	7.7677	8.579	9.2957	9.6721	0
200	14	6	1	5	361.5089	56	1	800	344522.6576	0.0007	9.6966	10.5127	11.2295	11.592	0
200	14	7	1	5	404.2469	56	1	800	344522.6576	0.0007	11.6152	12.4297	13.1465	13.5518	0
200	14	8	1	5	342.1502	56	1	800	344522.6576	0.0007	13.5633	14.3801	15.0969	15.44	0
200	14	9	1	5	345.9699	29	1	800	344522.6576	0.0007	15.4635	16.2804	16.9973	17.3442	0
200	14	10	1	5	349.3662	56	1	800	344522.6576	0.0007	17.3649	18.1808	18.8976	19.248	0
200	14	11	1	5	352.5935	56	1	800	344522.6576	0.0007	19.2692	20.0812	20.7979	21.1516	0
200	14	12	1	5	365.1125	56	1	800	344522.6576	0.0007	21.1653	21.9815	22.6983	23.0643	0
200	14	13	1	5	311.0671	56	1	800	344522.6576	0.0007	23.0873	23.8985	24.6154	24.9276	0
200	14	14	1	5	340.1335	29	1	800	344522.6576	0.0007	24.9498	25.7656	26.4824	26.8236	0
200	14	15	1	5	424.7131	29	1	800	344522.6576	0.0007	26.8491	27.6659	28.3827	28.8084	0
200	14	16	1	5	360.9024	29	1	800	344522.6576	0.0007	28.8331	29.6496	30.3664	30.7282	0
200	14	17	1	5	339.8524	56	1	800	344522.6576	0.0007	30.7505	31.5666	32.2834	32.6242	0
200	14	18	1	5	335.159	56	1	800	344522.6576	0.0007	32.6524	33.4671	34.184	34.5202	0
200	14	19	1	5	443.7586	29	1	800	344522.6576	0.0007	34.5383	35.3508	36.0674	36.5121	0
200	14	20	1	5	330.8622	56	1	800	344522.6576	0.0007	36.5346	37.3511	38.0679	38.3998	0
200	14	21	1	5	359.5516	29	1	800	344522.6576	0.0007	38.4219	39.2349	39.9516	40.3121	0
200	14	22	1	5	354.2974	29	1	800	344522.6576	0.0007	40.3354	41.1519	41.8685	42.2239	0
200	14	23	1	5	406.0903	56	1	800	344522.6576	0.0007	42.2352	43.0522	43.769	44.1762	0
200	14	24	1	5	391.1158	29	1	800	344522.6576	0.0007	44.206	45.0192	45.736	46.1282	0
200	14	25	1	5	351.9666	56	1	800	344522.6576	0.0007	46.1533	46.9696	47.6865	48.0397	0
200	14	26	1	5	324.2989	56	1	800	344522.6576	0.0007	48.0568	48.8699	49.5868	49.9121	0
200	14	27	1	5	329.0112	56	1	800	344522.6576	0.0007	49.9377	50.7537	51.4704	51.8003	0
200	14	28	1	5	356.6911	29	1	800	344522.6576	0.0007	51.823	52.6373	53.3543	53.712	0
200	14	29	1	5	448.3529	29	1	800	344522.6576	0.0007	53.7421	54.5545	55.2712	55.7204	0
200	14	30	1	5	375.1899	29	1	800	344522.6576	0.0007	55.7433	56.5548	57.2715	57.6478	0
200	15	1	1	5	306.4191	56	1	800	344586.1081	0.001	0.0151	0.8313	1.5482	1.8556	0
200	15	2	1	5	328.1012	56	1	800	344586.1081	0.001	1.8823	2.6983	3.4152	3.7442	0
200	15	3	1	5	395.9332	56	1	800	344586.1081	0.001	3.766	4.582	5.2989	5.6959	0
200	15	4	1	5	413.2647	29	1	800	344586.1081	0.001	5.718	6.5324	7.2492	7.6639	0
200	15	5	1	5	438.1749	29	1	800	344586.1081	0.001	7.6872	8.4996	9.2163	9.6555	0
200	15	6	1	5	447.2634	29	1	800	344586.1081	0.001	9.6671	10.4831	11.2	11.6483	0
200	15	7	1	5	334.8152	56	1	800	344586.1081	0.001	11.6712	12.4837	13.2004	13.5364	0
200	15	8	1	5	434.8793	29	1	800	344586.1081	0.001	13.5542	14.3672	15.0841	15.5201	0
200	15	9	1	5	395.6817	29	1	800	344586.1081	0.001	15.5382	16.3509	17.0679	17.4645	0
200	15	10	1	5	380.8353	29	1	800	344586.1081	0.001	17.4853	18.3013	19.0181	19.4	0
200	15	11	1	5	351.4886	56	1	800	344586.1081	0.001	19.423	20.235	20.9518	21.3042	0
200	15	12	1	5	426.8648	29	1	800	344586.1081	0.001	21.3189	22.1354	22.8521	23.2799	0
200	16	1	1	6	333.9568	56	1	800	344620.612	0.0008	0.0126	0.8288	1.5455	1.8805	0
200	16	2	1	6	425.7173	29	1	800	344620.612	0.0008	1.9023	2.7124	3.4293	3.856	0
200	16	3	1	6	370.2188	29	1	800	344620.612	0.0008	3.8799	4.6961	5.4129	5.7843	0
200	16	4	1	6	493.4279	56	1	800	344620.612	0.0008	5.7968	6.6132	7.3299	7.8243	0
200	16	5	1	6	378.6008	29	1	800	344620.612	0.0008	7.8476	8.6636	9.3804	9.7602	0
200	16	6	1	6	356.9652	56	1	800	344620.612	0.0008	9.781	10.5973	11.314	11.672	0
200	16	7	1	6	279.2757	56	1	800	344620.612	0.0008	11.6999	12.5143	13.2313	13.5117	0
200	16	8	1	6	342.0659	56	1	800	344620.612	0.0008	13.5347	14.348	15.0647	15.4078	0
200	16	9	1	6	338.3473	56	1	800	344620.612	0.0008	15.4313	16.2484	16.9651	17.3044	0
200	16	10	1	6	318.2573	56	1	800	344620.612	0.0008	17.3151	18.132	18.8489	19.1682	0
200	16	11	1	6	299.1554	56	1	800	344620.612	0.0008	19.1863	19.999	20.7158	21.0159	0
200	16	12	1	6	305.2751	56	1	800	344620.612	0.0008	21.0388	21.8495	22.5662	22.8724	0
200	16	13	1	6	446.5761	29	1	800	344620.612	0.0008	22.8833	23.6999	24.4165	24.8641	0
200	16	14	1	6	413.9578	29	1	800	344620.612	0.0008	24.8852	25.7002	26.417	26.8319	0
200	16	15	1	6	375.162	29	1	800	344620.612	0.0008	26.8552	27.6671	28.3841	28.7602	0
200	16	16	1	6	337.3507	56	1	800	344620.612	0.0008	28.7849	29.601	30.3177	30.656	0
200	16	17	1	6	421.7013	29	1	800	344620.612	0.0008	30.6682	31.4846	32.2013	32.6242	0
200	16	18	1	6	367.2501	29	1	800	344620.612	0.0008	32.6353	33.4516	34.1683	34.5365	0
200	16	19	1	6	305.8068	56	1	800	344620.612	0.0008	34.5581	35.3688	36.0855	36.3923	0
200	16	20	1	6	462.6094	56	1	800	344620.612	0.0008	36.4187	37.2356	37.9525	38.4161	0
200	16	21	1	6	381.6364	29	1	800	344620.612	0.0008	38.4379	39.2526	39.9695	40.3521	0
200	16	22	1	6	351.8835	56	1	800	344620.612	0.0008	40.3736	41.1864	41.9032	42.256	0
200	16	23	1	6	475.8587	29	1	800	344620.612	0.0008	42.2724	43.0869	43.8036	44.2805	0
200	16	24	1	6	353.439	56	1	800	344620.612	0.0008	44.3043	45.1205	45.8372	46.1918	0
200	16	25	1	6	373.6882	29	1	800	344620.612	0.0008	46.2044	47.0209	47.7376	48.1122	0
200	16	26	1	6	311.9402	56	1	800	344620.612	0.0008	48.1418	48.9546	49.6714	49.9845	0
200	16	27	1	6	396.5648	56	1	800	344620.612	0.0008	50.006	50.8215	51.5383	51.936	0
200	16	28	1	6	406.7655	29	1	800	344620.612	0.0008	51.9587	52.772	53.4888	53.8965	0
200	16	29	1	6	399.1631	29	1	800	344620.612	0.0008	53.9277	54.739	55.4558	55.8559	0
200	16	30	1	6	456.5941	29	1	800	344620.612	0.0008	55.8774	56.6895	57.4061	57.8638	0
200	17	1	1	6	352.3128	29	1	800	344691.5238	0.0009	0.01	0.8255	1.5424	1.8958	0
200	17	2	1	6	324.189	56	1	800	344691.5238	0.0009	1.9094	2.726	3.4429	3.7681	0
200	17	3	1	6	399.9488	29	1	800	344691.5238	0.0009	3.7965	4.6096	5.3264	5.7277	0
200	17	4	1	6	298.3606	56	1	800	344691.5238	0.0009	5.749	6.5601	7.2768	7.5761	0
200	17	5	1	6	367.7277	29	1	800	344691.5238	0.0009	7.5975	8.4103	9.1273	9.496	0
200	17	6	1	6	347.1444	29	1	800	344691.5238	0.0009	9.5181	10.3274	11.0442	11.3923	0
200	17	7	1	6	309.6273	56	1	800	344691.5238	0.0009	11.4144	12.2277	12.9447	13.2556	0
200	17	8	1	6	331.3814	29	1	800	344691.5238	0.0009	13.2782	14.0948	14.8116	15.1439	0
200	17	9	1	6	383.7184	29	1	800	344691.5238	0.0009	15.1656	15.9784	16.6952	17.0801	0
200	17	10	1	6	274.1885	56	1	800	344691.5238	0.0009	17.1004	17.9121	18.6289	18.9044	0
200	17	11	1	6	352.4829	29	1	800	344691.5238	0.0009	18.9292	19.7458	20.4628	20.8163	0
200	17	12	1	6	411.5043	29	1	800	344691.5238	0.0009	20.8292	21.6461	22.363	22.7756	0
200	18	1	1	6	304.4063	29	1	800	344725.9966	0.0008	0.0102	0.8255	1.5422	1.8477	0
200	18	2	1	6	310.0197	56	1	800	344725.9966	0.0008	1.8591	2.6758	3.3927	3.7038	0
200	18	3	1	6	307.5666	56	1	800	344725.9966	0.0008	3.7269	4.5428	5.2596	5.5681	0
200	18	4	1	6	272.3612	56	1	800	344725.9966	0.0008	5.5931	6.4099	7.1267	7.4	0
200	18	5	1	6	350.7068	56	1	800	344725.9966	0.0008	7.427	8.2435	8.9605	9.3124	0
200	18	6	1	6	298.4458	56	1	800	344725.9966	0.0008	9.3271	10.1439	10.8607	11.1601	0
200	18	7	1	6	408.2888	29	1	800	344725.9966	0.0008	11.1802	11.9942	12.7111	13.1203	0
200	18	8	1	6	337.2072	56	1	800	344725.9966	0.0008	13.1446	13.9613	14.6782	15.0164	0
200	18	9	1	6	372.8892	29	1	800	344725.9966	0.0008	15.0282	15.845	16.5618	16.9357	0
200	18	10	1	6	303.2253	56	1	800	344725.9966	0.0008	16.9628	17.7787	18.4955	18.7998	0
200	18	11	1	6	413.1958	56	1	800	344725.9966	0.0008	18.8166	19.629	20.3458	20.76	0
200	18	12	1	6	381.5307	29	1	800	344725.9966	0.0008	20.7829	21.5961	22.3129	22.6957	0
200	18	13	1	6	336.6059	56	1	800	344725.9966	0.0008	22.7178	23.5297	24.2466	24.5841	0
200	18	14	1	6	389.0658	29	1	800	344725.9966	0.0008	24.5998	25.4135	26.1303	26.5203	0
200	18	15	1	6	422.7299	56	1	800	344725.9966	0.0008	26.5313	27.3472	28.0639	28.4876	0
200	18	16	1	6	519.0242	29	1	800	344725.9966	0.0008	28.5154	29.3309	30.0477	30.5677	0
200	18	17	1	6	356.5665	29	1	800	344725.9966	0.0008	30.5825	31.3979	32.1147	32.4722	0
200	18	18	1	6	431.054	29	1	800	344725.9966	0.0008	32.502	33.315	34.0317	34.4638	0
200	18	19	1	6	311.1063	56	1	800	344725.9966	0.0008	34.4861	35.2986	36.0155	36.3278	0
200	18	20	1	6	484.4196	29	1	800	344725.9966	0.0008	36.3494	37.1657	37.8826	38.3681	0
200	18	21	1	6	618.7295	29	1	800	344725.9966	0.0008	38.3859	39.1994	39.9161	40.5358	0
200	18	22	1	6	547.1267	56	0	800	344725.9966	0.0008	40.5521	41.3664	42.0834	42.6317	0
200	18	23	1	6	382.4363	56	1	800	344725.9966	0.0008	0.0235	0.8363	1.5531	1.9367	0
200	18	24	1	6	391.6579	29	1	800	344725.9966	0.0008	1.9573	2.7701	3.4868	3.8796	0
200	18	25	1	6	338.2605	56	1	800	344725.9966	0.0008	3.9036	4.7203	5.4371	5.7765	0
200	18	26	1	6	334.317	56	1	800	344725.9966	0.0008	5.7874	6.604	7.3209	7.6562	0
200	18	27	1	6	585.9561	29	1	800	344725.9966	0.0008	7.6786	8.4877	9.2045	9.7915	0
200	18	28	1	6	300.7984	56	1	800	344725.9966	0.0008	9.8103	10.6214	11.3382	11.64	0
200	18	29	1	6	330.6459	29	1	800	344725.9966	0.0008	11.659	12.4718	13.1887	13.5203	0
200	18	30	1	6	422.6843	56	1	800	344725.9966	0.0008	13.5426	14.3556	15.0723	15.4961	0
200	19	1	1	7	406.5006	29	1	800	344791.8918	0.001	0.0233	0.8359	1.5527	1.9603	0
200	19	2	1	7	391.0095	29	1	800	344791.8918	0.001	1.989	2.803	3.5197	3.9118	0
200	19	3	1	7	391.9894	29	1	800	344791.8918	0.001	3.9371	4.7533	5.4703	5.8635	0
200	19	4	1	7	361.7036	56	1	800	344791.8918	0.001	5.8875	6.7037	7.4206	7.7836	0
200	19	5	1	7	525.1865	29	1	800	344791.8918	0.001	7.8052	8.6207	9.3376	9.8638	0
200	19	6	1	7	449.1344	29	1	800	344791.8918	0.001	9.8875	10.7045	11.4213	11.8715	0
200	19	7	1	7	344.7952	56	1	800	344791.8918	0.001	11.8943	12.7049	13.4217	13.7676	0
200	19	8	1	7	357.259	56	1	800	344791.8918	0.001	13.7908	14.6053	15.322	15.6802	0
200	19	9	1	7	391.9287	29	1	800	344791.8918	0.001	15.7099	16.5222	17.2391	17.632	0
200	19	10	1	7	521.5536	56	1	800	344791.8918	0.001	17.6567	18.4727	19.1895	19.712	0
200	19	11	1	7	390.6144	29	1	800	344791.8918	0.001	19.723	20.5399	21.2564	21.6481	0
200	19	12	1	7	359.6594	56	1	800	344791.8918	0.001	21.6733	22.4901	23.2069	23.5679	0
200	20	1	1	7	350.3289	29	1	800	344824.7318	0.0007	0.0115	0.8281	1.5449	1.8962	0
200	20	2	1	7	345.523	29	1	800	344824.7318	0.0007	1.9188	2.7285	3.4452	3.7919	0
200	20	3	1	7	293.2324	56	1	800	344824.7318	0.0007	3.8125	4.6288	5.3457	5.6399	0
200	20	4	1	7	306.5107	56	1	800	344824.7318	0.0007	5.6624	6.4793	7.196	7.5037	0
200	20	5	1	7	328.2538	56	1	800	344824.7318	0.0007	7.5324	8.3463	9.063	9.3928	0
200	20	6	1	7	324.3114	56	1	800	344824.7318	0.0007	9.4132	10.2299	10.9467	11.2722	0
200	20	7	1	7	376.2921	56	1	800	344824.7318	0.0007	11.297	12.1136	12.8304	13.2077	0
200	20	8	1	7	346.9818	29	1	800	344824.7318	0.0007	13.2305	14.0473	14.7642	15.1121	0
200	20	9	1	7	414.3417	29	1	800	344824.7318	0.0007	15.135	15.9478	16.6647	17.08	0
200	20	10	1	7	303.6534	56	1	800	344824.7318	0.0007	17.102	17.9149	18.6315	18.9361	0
200	20	11	1	7	300.7493	56	1	800	344824.7318	0.0007	18.9524	19.765	20.482	20.7838	0
200	20	12	1	7	378.6842	29	1	800	344824.7318	0.0007	20.8065	21.6153	22.3324	22.712	0
200	20	13	1	7	405.3168	56	1	800	344824.7318	0.0007	22.7331	23.5491	24.266	24.6722	0
200	20	14	1	7	462.5811	29	1	800	344824.7318	0.0007	24.6832	25.4995	26.2164	26.68	0
200	20	15	1	7	341.8932	56	1	800	344824.7318	0.0007	26.7025	27.5166	28.2333	28.5762	0
200	20	16	1	7	473.7545	56	1	800	344824.7318	0.0007	28.6	29.4168	30.1337	30.6084	0
200	20	17	1	7	351.2329	29	1	800	344824.7318	0.0007	30.6378	31.4506	32.1674	32.5197	0
200	20	18	1	7	371.2251	29	1	800	344824.7318	0.0007	32.538	33.351	34.0678	34.4401	0
200	20	19	1	7	494.4466	56	1	800	344824.7318	0.0007	34.4514	35.268	35.9848	36.4804	0
200	20	20	1	7	339.3	29	1	800	344824.7318	0.0007	36.5014	37.3183	38.0351	38.3756	0
200	20	21	1	7	391.6028	29	1	800	344824.7318	0.0007	38.4059	39.2187	39.9356	40.3282	0
200	20	22	1	7	383.9627	56	1	800	344824.7318	0.0007	40.3526	41.169	41.8867	42.2718	0
200	20	23	1	7	291.7808	56	1	800	344824.7318	0.0007	42.2902	43.1027	43.8196	44.1124	0
200	20	24	1	7	352.8187	29	1	800	344824.7318	0.0007	44.1368	44.9531	45.67	46.0239	0
200	20	25	1	7	372.5916	56	1	800	344824.7318	0.0007	46.0386	46.8536	47.5703	47.944	0
200	20	26	1	7	358.6446	56	1	800	344824.7318	0.0007	47.9703	48.7872	49.5041	49.8639	0
200	20	27	1	7	425.9898	29	1	800	344824.7318	0.0007	49.8878	50.7042	51.421	51.848	0
200	20	28	1	7	425.5249	56	1	800	344824.7318	0.0007	51.8717	52.6879	53.4048	53.8314	0
200	20	29	1	7	402.1763	29	1	800	344824.7318	0.0007	53.8556	54.6717	55.3884	55.7918	0
200	20	30	1	7	332.3055	56	1	800	344824.7318	0.0007	55.808	56.622	57.3389	57.6722	0
200	21	1	1	7	322.7396	56	1	800	344886.8301	0.0007	0.0171	0.8312	1.548	1.8716	0
200	21	2	1	7	342.9934	56	1	800	344886.8301	0.0007	1.9017	2.7149	3.4317	3.7756	0
200	21	3	1	7	306.4031	56	1	800	344886.8301	0.0007	3.7993	4.6152	5.3321	5.6395	0
200	21	4	1	7	479.3549	29	1	800	344886.8301	0.0007	5.6698	6.4823	7.1991	7.6794	0
200	21	5	1	7	301.1182	56	1	800	344886.8301	0.0007	7.7016	8.516	9.2328	9.5351	0
200	21	6	1	7	483.4663	29	1	800	344886.8301	0.0007	9.5505	10.3664	11.0831	11.5676	0
200	21	7	1	7	434.1562	29	1	800	344886.8301	0.0007	11.5899	12.4001	13.1169	13.5526	0
200	21	8	1	7	449.9078	29	1	800	344886.8301	0.0007	13.5683	14.3838	15.1006	15.5515	0
200	21	9	1	7	458.0864	29	1	800	344886.8301	0.0007	15.5726	16.3841	17.1009	17.5599	0
200	21	10	1	7	360.8098	29	1	800	344886.8301	0.0007	17.5888	18.4012	19.1182	19.4799	0
200	21	11	1	7	323.554	56	1	800	344886.8301	0.0007	19.5023	20.3184	21.0352	21.3597	0
200	21	12	1	7	375.1461	56	1	800	344886.8301	0.0007	21.3899	22.2019	22.9188	23.2952	0
200	22	1	1	8	349.0307	29	1	800	344919.5163	0.0008	0.0169	0.8293	1.546	1.896	0
200	22	2	1	8	384.2718	29	1	800	344919.5163	0.0008	1.919	2.7297	3.4466	3.8319	0
200	22	3	1	8	354.034	29	1	800	344919.5163	0.0008	3.8475	4.6635	5.3805	5.7356	0
200	22	4	1	8	334.5942	56	1	800	344919.5163	0.0008	5.7472	6.5638	7.2807	7.6163	0
200	22	5	1	8	426.0688	29	1	800	344919.5163	0.0008	7.6342	8.4475	9.1645	9.5917	0
200	22	6	1	8	347.2495	56	1	800	344919.5163	0.0008	9.6143	10.4313	11.148	11.4962	0
200	22	7	1	8	310.4937	56	1	800	344919.5163	0.0008	11.5199	12.3316	13.0485	13.36	0
200	22	8	1	8	379.8419	29	1	800	344919.5163	0.0008	13.3826	14.1986	14.9155	15.2962	0
200	22	9	1	8	413.9043	29	1	800	344919.5163	0.0008	15.3188	16.1324	16.8492	17.2643	0
200	22	10	1	8	422.3632	29	1	800	344919.5163	0.0008	17.2879	18.0994	18.8162	19.2396	0
200	22	11	1	8	398.8696	29	1	800	344919.5163	0.0008	19.268	20.0831	20.7999	21.1998	0
200	22	12	1	8	440.9092	29	1	800	344919.5163	0.0008	21.2231	22.0334	22.7502	23.1921	0
200	22	13	1	8	376.8827	29	1	800	344919.5163	0.0008	23.2174	24.0338	24.7507	25.1285	0
200	22	14	1	8	354.468	29	1	800	344919.5163	0.0008	25.1508	25.9675	26.6843	27.0398	0
200	22	15	1	8	398.5916	56	1	800	344919.5163	0.0008	27.0511	27.8678	28.5847	28.9843	0
200	22	16	1	8	279.3709	56	1	800	344919.5163	0.0008	29.0069	29.8183	30.5351	30.8155	0
200	22	17	1	8	318.3714	29	1	800	344919.5163	0.0008	30.8388	31.652	32.3687	32.6881	0
200	22	18	1	8	395.5191	56	1	800	344919.5163	0.0008	32.7024	33.519	34.2358	34.6322	0
200	22	19	1	8	349.1227	56	1	800	344919.5163	0.0008	34.654	35.4693	36.1862	36.5363	0
200	22	20	1	8	328.8963	56	1	800	344919.5163	0.0008	36.5527	37.3698	38.0865	38.4164	0
200	22	21	1	8	340.9054	29	1	800	344919.5163	0.0008	38.4373	39.2531	39.9702	40.3121	0
200	22	22	1	8	424.6122	29	1	800	344919.5163	0.0008	40.3377	41.1537	41.8705	42.2963	0
200	22	23	1	8	352.2791	56	1	800	344919.5163	0.0008	42.3204	43.1375	43.8543	44.2078	0
200	22	24	1	8	349.1437	56	1	800	344919.5163	0.0008	44.2217	45.0378	45.7546	46.1048	0
200	22	25	1	8	311.657	56	1	800	344919.5163	0.0008	46.1258	46.9382	47.6549	47.9678	0
200	22	26	1	8	388.4176	29	1	800	344919.5163	0.0008	47.9905	48.8052	49.5221	49.9116	0
200	22	27	1	8	366.2141	29	1	800	344919.5163	0.0008	49.9397	50.7555	51.4723	51.84	0
200	22	28	1	8	354.0129	56	1	800	344919.5163	0.0008	51.863	52.6726	53.3894	53.7443	0
200	22	29	1	8	429.7006	56	1	800	344919.5163	0.0008	53.7563	54.573	55.2898	55.7204	0
200	22	30	1	8	389.2953	56	1	800	344919.5163	0.0008	55.7431	56.5566	57.2735	57.6638	0
200	23	1	1	8	362.3438	29	1	800	344981.1446	0.0015	0.0102	0.8234	1.5403	1.9036	0
200	23	2	1	8	261.3769	56	1	800	344981.1446	0.0015	1.9238	2.7404	3.4572	3.7196	0
200	23	3	1	8	388.0688	29	1	800	344981.1446	0.0015	3.7423	4.5574	5.2743	5.6633	0
200	23	4	1	8	414.4397	29	1	800	344981.1446	0.0015	5.6747	6.4911	7.208	7.6235	0
200	23	5	1	8	383.9858	29	1	800	344981.1446	0.0015	7.6418	8.4581	9.175	9.5599	0
200	23	6	1	8	409.8471	29	1	800	344981.1446	0.0015	9.5821	10.392	11.1087	11.5195	0
200	23	7	1	8	402.5093	56	1	800	344981.1446	0.0015	11.5425	12.3588	13.0757	13.4793	0
200	23	8	1	8	372.6799	29	1	800	344981.1446	0.0015	13.4928	14.3093	15.0261	15.3997	0
200	23	9	1	8	390.7618	56	1	800	344981.1446	0.0015	15.4296	16.243	16.9597	17.3514	0
200	23	10	1	8	344.5993	29	1	800	344981.1446	0.0015	17.3768	18.1933	18.91	19.2555	0
200	23	11	1	8	380.0478	29	1	800	344981.1446	0.0015	19.2779	20.0937	20.8105	21.1916	0
200	23	12	1	8	398.4148	29	1	800	344981.1446	0.0015	21.214	22.0274	22.7443	23.1436	0
200	24	1	1	8	408.1801	56	1	800	345009.0699	0.0007	0.0095	0.826	1.5428	1.9519	0
200	24	2	1	8	368.7982	29	1	800	345009.0699	0.0007	1.9764	2.7931	3.5097	3.8796	0
200	24	3	1	8	467.9902	29	1	800	345009.0699	0.0007	3.8931	4.71	5.4268	5.8958	0
200	24	4	1	8	379.5267	29	1	800	345009.0699	0.0007	5.915	6.7271	7.4438	7.8242	0
200	24	5	1	8	356.7602	56	1	800	345009.0699	0.0007	7.8462	8.6607	9.3776	9.7355	0
200	24	6	1	8	336.7106	56	1	800	345009.0699	0.0007	9.7613	10.5779	11.2945	11.6322	0
200	24	7	1	8	365.0278	29	1	800	345009.0699	0.0007	11.6454	12.4614	13.1783	13.5444	0
200	24	8	1	8	415.0796	29	1	800	345009.0699	0.0007	13.5659	14.3785	15.0954	15.5116	0
200	24	9	1	8	560.7063	56	1	800	345009.0699	0.0007	15.533	16.3455	17.0624	17.624	0
200	24	10	1	8	291.7165	56	1	800	345009.0699	0.0007	17.6465	18.4626	19.1795	19.4722	0
200	24	11	1	8	384.9392	29	1	800	345009.0699	0.0007	19.4969	20.3129	21.0298	21.416	0
200	24	12	1	8	411.1756	29	1	800	345009.0699	0.0007	21.4338	22.2467	22.9635	23.3757	0
200	24	13	1	8	508.868	56	1	800	345009.0699	0.0007	23.3988	24.2137	24.9305	25.4403	0
200	24	14	1	8	376.7721	29	1	800	345009.0699	0.0007	25.4645	26.2808	26.9976	27.3757	0
200	24	15	1	8	331.0969	56	1	800	345009.0699	0.0007	27.3983	28.2145	28.9313	29.2636	0
200	24	16	1	8	359.4549	29	1	800	345009.0699	0.0007	29.2865	30.0981	30.8149	31.1756	0
200	24	17	1	8	283.2105	56	1	800	345009.0699	0.0007	31.1982	32.0152	32.7321	33.0164	0
200	24	18	1	8	297.163	56	1	800	345009.0699	0.0007	33.0378	33.8489	34.5656	34.8638	0
200	24	19	1	8	334.4829	29	1	800	345009.0699	0.0007	34.8863	35.6993	36.416	36.7518	0
200	24	20	1	8	299.4327	56	1	800	345009.0699	0.0007	36.7686	37.583	38.2998	38.6002	0
200	24	21	1	8	345.2575	56	1	800	345009.0699	0.0007	38.6208	39.4332	40.1501	40.4963	0
200	24	22	1	8	380.0334	29	1	800	345009.0699	0.0007	40.518	41.3336	42.0504	42.4316	0
200	24	23	1	8	699.7948	1	0	800	345009.0699	0.0007	42.4559	43.2673	43.9841	44.6851	0
200	24	24	1	8	322.1691	56	1	800	345009.0699	0.0007	0.0173	0.8325	1.5492	1.8723	0
200	24	25	1	8	350.5784	56	1	800	345009.0699	0.0007	1.8835	2.6996	3.4164	3.768	0
200	24	26	1	8	522.6607	29	1	800	345009.0699	0.0007	3.7903	4.6	5.3166	5.8403	0
200	24	27	1	8	431.3084	29	1	800	345009.0699	0.0007	5.851	6.6669	7.3837	7.816	0
200	24	28	1	8	503.3035	56	1	800	345009.0699	0.0007	7.8399	8.6506	9.3675	9.8718	0
200	24	29	1	8	533.4159	29	1	800	345009.0699	0.0007	9.8842	10.701	11.4178	11.9525	0
200	24	30	1	8	417.013	29	1	800	345009.0699	0.0007	11.9739	12.7848	13.5016	13.9197	0
200	25	1	1	9	415.2199	29	1	800	345077.5293	0.0008	0.0103	0.8269	1.5436	1.9599	0
200	25	2	1	9	447.4031	29	1	800	345077.5293	0.0008	1.9837	2.7939	3.5107	3.9593	0
200	25	3	1	9	407.8571	29	1	800	345077.5293	0.0008	3.9833	4.7943	5.5111	5.92	0
200	25	4	1	9	543.8332	56	1	800	345077.5293	0.0008	5.9454	6.7614	7.4782	8.0233	0
200	25	5	1	9	283.752	56	1	800	345077.5293	0.0008	8.0469	8.8617	9.5786	9.8634	0
200	25	6	1	9	402.4162	56	1	800	345077.5293	0.0008	9.8802	10.6954	11.4123	11.8157	0
200	25	7	1	9	380.2716	29	1	800	345077.5293	0.0008	11.8316	12.6457	13.3627	13.7439	0
200	25	8	1	9	381.8492	29	1	800	345077.5293	0.0008	13.7684	14.5795	15.2963	15.6792	0
200	25	9	1	9	336.6084	56	1	800	345077.5293	0.0008	15.7009	16.5131	17.2299	17.5676	0
200	25	10	1	9	445.4569	29	1	800	345077.5293	0.0008	17.58	18.3969	19.1137	19.5601	0
200	25	11	1	9	316.5699	56	1	800	345077.5293	0.0008	19.5817	20.3973	21.114	21.4316	0
200	25	12	1	9	345.9482	29	1	800	345077.5293	0.0008	21.4543	22.2643	22.981	23.3279	0
200	26	1	1	9	306.7725	56	1	800	345107.4008	0.0007	0.0199	0.8316	1.5483	1.856	0
200	26	2	1	9	375.6594	29	1	800	345107.4008	0.0007	1.8861	2.6985	3.4154	3.792	0
200	26	3	1	9	481.7725	56	1	800	345107.4008	0.0007	3.816	4.6322	5.3491	5.8319	0
200	26	4	1	9	408.1061	29	1	800	345107.4008	0.0007	5.8548	6.666	7.3827	7.7918	0
200	26	5	1	9	417.2057	29	1	800	345107.4008	0.0007	7.8165	8.6331	9.3498	9.7687	0
200	26	6	1	9	354.2655	29	1	800	345107.4008	0.0007	9.7831	10.6002	11.3168	11.6721	0
200	26	7	1	9	381.5526	29	1	800	345107.4008	0.0007	11.6843	12.5002	13.2173	13.5999	0
200	26	8	1	9	424.0935	56	1	800	345107.4008	0.0007	13.6199	14.4341	15.151	15.576	0
200	26	9	1	9	312.3481	56	1	800	345107.4008	0.0007	15.6014	16.4179	17.1347	17.448	0
200	26	10	1	9	357.5345	56	1	800	345107.4008	0.0007	17.4692	18.2849	19.0017	19.3602	0
200	26	11	1	9	383.9384	29	1	800	345107.4008	0.0007	19.3849	20.202	20.9188	21.3038	0
200	26	12	1	9	426.7182	56	1	800	345107.4008	0.0007	21.3262	22.1356	22.8525	23.2802	0
200	26	13	1	9	298.9692	56	1	800	345107.4008	0.0007	23.3029	24.1193	24.8361	25.136	0
200	26	14	1	9	424.5038	29	1	800	345107.4008	0.0007	25.1594	25.9697	26.6866	27.1121	0
200	26	15	1	9	361.0348	29	1	800	345107.4008	0.0007	27.1369	27.9534	28.6701	29.0322	0
200	26	16	1	9	356.2678	29	1	800	345107.4008	0.0007	29.055	29.8703	30.5872	30.9444	0
200	26	17	1	9	350.3904	56	1	800	345107.4008	0.0007	30.9715	31.7874	32.5043	32.856	0
200	26	18	1	9	321.7121	56	1	800	345107.4008	0.0007	32.8731	33.6878	34.4047	34.7274	0
200	26	19	1	9	375.5181	29	1	800	345107.4008	0.0007	34.7389	35.5548	36.2716	36.6481	0
200	26	20	1	9	345.6821	56	1	800	345107.4008	0.0007	36.6718	37.4886	38.2053	38.552	0
200	26	21	1	9	317.0323	29	1	800	345107.4008	0.0007	38.5739	39.3888	40.1058	40.4238	0
200	26	22	1	9	370.5397	29	1	800	345107.4008	0.0007	40.442	41.2559	41.9727	42.3442	0
200	26	23	1	9	325.3294	56	1	800	345107.4008	0.0007	42.3563	43.1729	43.8896	44.216	0
200	26	24	1	9	369.939	29	1	800	345107.4008	0.0007	44.24	45.0567	45.7734	46.1443	0
200	26	25	1	9	365.039	29	1	800	345107.4008	0.0007	46.1578	46.9736	47.6904	48.0564	0
200	26	26	1	9	367.5264	29	1	800	345107.4008	0.0007	48.0799	48.8907	49.6074	49.9761	0
200	26	27	1	9	355.0055	56	1	800	345107.4008	0.0007	49.9909	50.8077	51.5245	51.8804	0
200	26	28	1	9	405.9296	29	1	800	345107.4008	0.0007	51.8914	52.708	53.4248	53.8318	0
200	26	29	1	9	295.0672	56	1	800	345107.4008	0.0007	53.8615	54.6752	55.3919	55.688	0
200	26	30	1	9	397.0824	56	1	800	345107.4008	0.0007	55.7086	56.5253	57.2422	57.6402	0
200	27	1	1	9	352.6337	29	1	800	345168.897	0.0015	0.023	0.8329	1.5497	1.9036	0
200	27	2	1	9	268.9813	56	1	800	345168.897	0.0015	1.9171	2.7332	3.4501	3.7202	0
200	27	3	1	9	308.032	56	1	800	345168.897	0.0015	3.7368	4.5503	5.2671	5.576	0
200	27	4	1	9	336.0654	29	1	800	345168.897	0.0015	5.6009	6.4172	7.1341	7.4712	0
200	27	5	1	9	317.3401	56	1	800	345168.897	0.0015	7.484	8.3009	9.0178	9.3361	0
200	27	6	1	9	290.1386	56	1	800	345168.897	0.0015	9.3511	10.1679	10.8848	11.1759	0
200	27	7	1	9	359.5502	29	0	800	345168.897	0.0015	11.2039	12.0183	12.7351	13.0957	0
200	27	8	1	9	358.2412	29	1	800	345168.897	0.0015	0.0306	0.8439	1.5605	1.9198	0
200	27	9	1	9	617.2949	29	1	800	345168.897	0.0015	1.9446	2.7608	3.4776	4.0959	0
200	27	10	1	9	378.7273	29	1	800	345168.897	0.0015	4.1186	4.9279	5.6447	6.0244	0
200	27	11	1	9	436.3651	29	1	800	345168.897	0.0015	6.0486	6.8616	7.5784	8.0158	0
200	27	12	1	9	444.8169	29	1	800	345168.897	0.0015	8.0283	8.8453	9.5621	10.008	0
200	27	1	2	9	452.2974	56	1	800	345168.897	0.0015	0.0214	0.8374	1.5544	2.0078	10.0101
200	27	2	2	9	308.2336	56	1	800	345168.897	0.0015	2.0209	2.8378	3.5547	3.8639	10.0101
200	27	3	2	9	336.5618	29	1	800	345168.897	0.0015	3.888	4.7049	5.4216	5.7594	10.0101
200	27	4	2	9	301.6588	56	1	800	345168.897	0.0015	5.7724	6.5886	7.3053	7.6081	10.0101
200	27	5	2	9	403.2176	56	1	800	345168.897	0.0015	7.6264	8.4388	9.1557	9.5599	10.0101
200	27	6	2	9	348.8135	56	1	800	345168.897	0.0015	9.5756	10.3892	11.106	11.4559	10.0101
200	27	7	2	9	400.5043	29	1	800	345168.897	0.0015	11.4794	12.2896	13.0064	13.4079	10.0101
200	27	8	2	9	314.1516	29	1	800	345168.897	0.0015	13.4283	14.24	14.9567	15.2719	10.0101
200	27	9	2	9	319.2158	29	1	800	345168.897	0.0015	15.2961	16.1071	16.8238	17.144	10.0101
200	27	10	2	9	331.8516	29	1	800	345168.897	0.0015	17.1573	17.9741	18.6908	19.0237	10.0101
200	27	11	2	9	359.7269	29	1	800	345168.897	0.0015	19.0479	19.8577	20.5746	20.9354	10.0101
200	27	12	2	9	346.9243	29	0	800	345168.897	0.0015	20.9584	21.7747	22.4915	22.8397	10.0101
200	27	1	3	9	366.9906	56	1	800	345168.897	0.0015	0.0233	0.8351	1.5519	1.9202	0.0021
200	27	2	3	9	346.9785	56	1	800	345168.897	0.0015	1.9369	2.7521	3.469	3.8176	0.0021
200	27	3	3	9	558.1428	29	1	800	345168.897	0.0015	3.8422	4.6524	5.3694	5.9288	0.0021
200	27	4	3	9	305.1389	56	1	800	345168.897	0.0015	5.953	6.7696	7.4863	7.7924	0.0021
200	27	5	3	9	342.8374	56	1	800	345168.897	0.0015	7.8037	8.62	9.3366	9.6805	0.0021
200	27	6	3	9	306.7335	56	1	800	345168.897	0.0015	9.7039	10.5204	11.2371	11.5448	0.0021
200	27	7	3	9	399.3623	29	1	800	345168.897	0.0015	11.5746	12.3873	13.1041	13.5045	0.0021
200	27	8	3	9	488.9889	29	1	800	345168.897	0.0015	13.5277	14.3377	15.0544	15.5445	0.0021
200	27	9	3	9	446.8325	29	1	800	345168.897	0.0015	15.5734	16.3881	17.1048	17.5527	0.0021
200	27	10	3	9	390.6095	29	1	800	345168.897	0.0015	17.5764	18.3884	19.1052	19.4967	0.0021
200	27	11	3	9	487.5325	29	1	800	345168.897	0.0015	19.5223	20.3388	21.0557	21.5444	0.0021
200	27	12	3	9	374.2598	56	1	800	345168.897	0.0015	21.5557	22.3725	23.0893	23.4647	0.0021
200	28	1	1	10	398.3467	29	1	800	345259.447	0.0007	0.0115	0.8278	1.5446	1.9441	0
200	28	2	1	10	367.644	56	1	800	345259.447	0.0007	1.9675	2.7783	3.4952	3.8642	0
200	28	3	1	10	307.5312	56	1	800	345259.447	0.0007	3.8792	4.6952	5.412	5.7205	0
200	28	4	1	10	312.5213	29	1	800	345259.447	0.0007	5.7464	6.5622	7.2791	7.5927	0
200	28	5	1	10	405.752	29	1	800	345259.447	0.0007	7.6145	8.4292	9.146	9.5526	0
200	28	6	1	10	342.9471	29	1	800	345259.447	0.0007	9.5635	10.3797	11.0965	11.4405	0
200	28	7	1	10	314.7027	56	1	800	345259.447	0.0007	11.4636	12.28	12.9967	13.3124	0
200	28	8	1	10	399.4212	56	1	800	345259.447	0.0007	13.335	14.1471	14.8638	15.2643	0
200	28	9	1	10	321.0211	56	1	800	345259.447	0.0007	15.2876	16.0974	16.8142	17.1363	0
200	28	10	1	10	326.0292	29	1	800	345259.447	0.0007	17.1477	17.9644	18.6812	19.0083	0
200	28	11	1	10	338.5454	56	1	800	345259.447	0.0007	19.0316	19.848	20.5649	20.9044	0
200	28	12	1	10	374.6146	29	1	800	345259.447	0.0007	20.9157	21.7318	22.4485	22.8242	0
200	28	13	1	10	361.2489	56	1	800	345259.447	0.0007	22.8494	23.6655	24.3823	24.7445	0
200	28	14	1	10	347.722	56	1	800	345259.447	0.0007	24.767	25.5825	26.2992	26.6482	0
200	28	15	1	10	584.144	29	1	800	345259.447	0.0007	26.6709	27.4828	28.1996	28.7848	0
200	28	16	1	10	313.9709	56	1	800	345259.447	0.0007	28.7997	29.6165	30.3334	30.6484	0
200	28	17	1	10	439.455	29	1	800	345259.447	0.0007	30.6708	31.4836	32.2004	32.641	0
200	28	18	1	10	350.1254	56	1	800	345259.447	0.0007	32.6683	33.4839	34.2007	34.552	0
200	28	19	1	10	386.4593	56	1	800	345259.447	0.0007	34.5752	35.3845	36.1011	36.4885	0
200	28	20	1	10	356.097	29	1	800	345259.447	0.0007	36.5021	37.3181	38.0348	38.3921	0
200	28	21	1	10	399.0176	29	1	800	345259.447	0.0007	38.4181	39.2351	39.9519	40.352	0
200	28	22	1	10	305.6294	56	1	800	345259.447	0.0007	40.3755	41.1854	41.9022	42.2088	0
200	28	23	1	10	390.543	56	1	800	345259.447	0.0007	42.2196	43.0358	43.7525	44.1442	0
200	28	24	1	10	400.1273	29	1	800	345259.447	0.0007	44.1697	44.9861	45.703	46.1042	0
200	28	25	1	10	386.0137	56	1	800	345259.447	0.0007	46.1272	46.9365	47.6533	48.0403	0
200	28	26	1	10	380.2668	29	1	800	345259.447	0.0007	48.0536	48.8704	49.587	49.9683	0
200	28	27	1	10	503.2149	29	1	800	345259.447	0.0007	49.993	50.8039	51.5207	52.0248	0
200	28	28	1	10	356.2481	56	1	800	345259.447	0.0007	52.0378	52.8544	53.5713	53.9285	0
200	28	29	1	10	351.3456	56	1	800	345259.447	0.0007	53.959	54.7714	55.4883	55.8406	0
200	28	30	1	10	355.1389	29	1	800	345259.447	0.0007	55.8547	56.6717	57.3885	57.7446	0
200	29	1	1	10	375.6269	56	1	800	345336.9951	0.0007	0.0114	0.8275	1.5443	1.9209	0
200	29	2	1	10	320.8648	56	1	800	345336.9951	0.0007	1.9446	2.7611	3.478	3.8	0
200	29	3	1	10	406.2952	29	1	800	345336.9951	0.0007	3.8116	4.6281	5.345	5.7524	0
200	29	4	1	10	335.1391	29	1	800	345336.9951	0.0007	5.7784	6.5952	7.3121	7.6483	0
200	29	5	1	10	307.3394	56	1	800	345336.9951	0.0007	7.666	8.479	9.1957	9.5041	0
200	29	6	1	10	345.0189	29	1	800	345336.9951	0.0007	9.5292	10.3459	11.0627	11.4086	0
200	29	7	1	10	531.7615	29	0	800	345336.9951	0.0007	11.4303	12.2463	12.9631	13.4957	0
200	29	8	1	10	442.0858	29	1	800	345336.9951	0.0007	0.016	0.8328	1.5497	1.9927	0
200	29	9	1	10	281.8842	56	1	800	345336.9951	0.0007	2.0167	2.8332	3.55	3.833	0
200	29	10	1	10	288.0743	56	1	800	345336.9951	0.0007	3.8561	4.6669	5.3839	5.6731	0
200	29	11	1	10	318.2165	56	1	800	345336.9951	0.0007	5.684	6.5006	7.2173	7.5365	0
200	29	12	1	10	315.3315	56	1	800	345336.9951	0.0007	7.5548	8.3677	9.0844	9.4009	0
200	29	1	2	10	327.0597	29	1	800	345336.9951	0.0007	0.0219	0.835	1.5517	1.8798	9.4037
200	29	2	2	10	314.9154	56	1	800	345336.9951	0.0007	1.9019	2.7188	3.4355	3.7518	9.4037
200	29	3	2	10	392.7843	29	1	800	345336.9951	0.0007	3.7759	4.5857	5.3025	5.6962	9.4037
200	29	4	2	10	281.9778	56	1	800	345336.9951	0.0007	5.7198	6.5361	7.2531	7.5361	9.4037
200	29	5	2	10	440.0183	29	1	800	345336.9951	0.0007	7.5587	8.3698	9.0865	9.5279	9.4037
200	29	6	2	10	312.3163	56	1	800	345336.9951	0.0007	9.5542	10.3701	11.0869	11.4002	9.4037
200	29	7	2	10	277.0251	56	1	800	345336.9951	0.0007	11.4233	12.2372	12.9539	13.2319	9.4037
200	29	8	2	10	291.4269	56	1	800	345336.9951	0.0007	13.2546	14.0708	14.7877	15.0801	9.4037
200	29	9	2	10	312.6144	56	1	800	345336.9951	0.0007	15.1044	15.9212	16.6383	16.952	9.4037
200	29	10	2	10	494.2344	29	1	800	345336.9951	0.0007	16.9751	17.7882	18.505	19.0002	9.4037
200	29	11	2	10	362.9993	29	1	800	345336.9951	0.0007	19.0221	19.8386	20.5554	20.9196	9.4037
200	29	12	2	10	341.904	56	1	800	345336.9951	0.0007	20.9443	21.7557	22.4725	22.8157	9.4037
200	30	1	1	10	293.8411	56	1	800	345398.3066	0.0007	0.0115	0.8282	1.545	1.8398	0
200	30	2	1	10	395.1596	29	1	800	345398.3066	0.0007	1.8626	2.6786	3.3954	3.7916	0
200	30	3	1	10	357.0437	56	1	800	345398.3066	0.0007	3.8121	4.6289	5.3457	5.7038	0
200	30	4	1	10	375.9278	29	1	800	345398.3066	0.0007	5.7295	6.5459	7.2627	7.6397	0
200	30	5	1	10	330.3312	56	1	800	345398.3066	0.0007	7.663	8.4797	9.1964	9.5277	0
200	30	6	1	10	325.9987	56	1	800	345398.3066	0.0007	9.5507	10.3633	11.0802	11.4075	0
200	30	7	1	10	330.9694	56	1	800	345398.3066	0.0007	11.4309	12.2471	12.964	13.2959	0
200	30	8	1	10	319.4527	56	1	800	345398.3066	0.0007	13.3193	14.1308	14.8475	15.168	0
200	30	9	1	10	364.4711	29	1	800	345398.3066	0.0007	15.1812	15.9977	16.7148	17.0801	0
200	30	10	1	10	439.2073	56	0	800	345398.3066	0.0007	17.1021	17.9147	18.6316	19.0717	0
200	30	11	1	10	420.6546	29	1	800	345398.3066	0.0007	0.0246	0.8377	1.5547	1.9763	0
200	30	12	1	10	421.0085	56	1	800	345398.3066	0.0007	1.9887	2.8048	3.5217	3.9438	0
200	30	13	1	10	318.774	56	1	800	345398.3066	0.0007	3.9555	4.7718	5.4886	5.8084	0
200	30	14	1	10	314.9853	56	1	800	345398.3066	0.0007	5.8262	6.6388	7.3558	7.6718	0
200	30	15	1	10	328.6414	56	1	800	345398.3066	0.0007	7.6959	8.5059	9.2226	9.5522	0
200	30	16	1	10	340.7914	29	1	800	345398.3066	0.0007	9.5729	10.3897	11.1063	11.4481	0
200	30	17	1	10	400.6224	29	1	800	345398.3066	0.0007	11.4735	12.2899	13.0067	13.4083	0
200	30	18	1	10	329.8663	56	1	800	345398.3066	0.0007	13.4238	14.2403	14.9571	15.2882	0
200	30	19	1	10	542.3282	56	1	800	345398.3066	0.0007	15.3129	16.1241	16.8407	17.384	0
200	30	20	1	10	361.9595	56	1	800	345398.3066	0.0007	17.4079	18.2245	18.9412	19.3041	0
200	30	21	1	10	428.5245	29	1	800	345398.3066	0.0007	19.3253	20.1415	20.8583	21.288	0
200	30	22	1	10	381.2875	29	1	800	345398.3066	0.0007	21.3122	22.1251	22.8419	23.2243	0
200	30	23	1	10	399.1355	29	1	800	345398.3066	0.0007	23.2469	24.0588	24.7756	25.1759	0
200	30	24	1	10	481.1088	56	1	800	345398.3066	0.0007	25.1972	26.0093	26.726	27.2081	0
200	30	25	1	10	350.8124	56	1	800	345398.3066	0.0007	27.2324	28.0429	28.7597	29.1117	0
200	30	26	1	10	306.5916	56	1	800	345398.3066	0.0007	29.1263	29.9433	30.6601	30.9678	0
200	30	27	1	10	359.3168	56	1	800	345398.3066	0.0007	30.9936	31.8103	32.5273	32.8877	0
200	30	28	1	10	554.9675	29	1	800	345398.3066	0.0007	32.9117	33.7273	34.4441	35.0001	0
200	30	29	1	10	398.8911	56	1	800	345398.3066	0.0007	35.0114	35.8277	36.5445	36.9443	0
200	30	30	1	10	407.8588	29	1	800	345398.3066	0.0007	36.9677	37.7782	38.4949	38.9037	0
200	31	1	1	11	344.0447	56	1	800	345472.774	0.0007	0.0235	0.8344	1.5512	1.8962	0
200	31	2	1	11	323.4463	29	0	800	345472.774	0.0007	1.9183	2.7347	3.4515	3.776	0
200	31	3	1	11	381.4747	29	1	800	345472.774	0.0007	0.0121	0.8289	1.5456	1.9281	0
200	31	4	1	11	640.2006	29	1	800	345472.774	0.0007	1.9522	2.7625	3.4793	4.1205	0
200	31	5	1	11	367.0434	29	1	800	345472.774	0.0007	4.1506	4.9631	5.6797	6.0479	0
200	31	6	1	11	433.8549	29	1	800	345472.774	0.0007	6.0707	6.8799	7.5967	8.0319	0
200	31	7	1	11	266.0371	56	1	800	345472.774	0.0007	8.0522	8.8637	9.5805	9.8476	0
200	31	8	1	11	353.4984	29	1	800	345472.774	0.0007	9.8709	10.6807	11.3976	11.7521	0
200	31	9	1	11	517.2232	29	1	800	345472.774	0.0007	11.7647	12.581	13.2978	13.816	0
200	31	10	1	11	322.4897	29	1	800	345472.774	0.0007	13.8331	14.6481	15.3649	15.6884	0
200	31	11	1	11	462.3613	56	1	800	345472.774	0.0007	15.7147	16.5317	17.2487	17.7122	0
200	31	12	1	11	509.8393	29	1	800	345472.774	0.0007	17.7361	18.5489	19.2656	19.7764	0
200	31	1	2	11	348.2171	29	1	800	345472.774	0.0007	0.0218	0.8374	1.5542	1.9036	19.7786
200	31	2	2	11	391.8349	29	1	800	345472.774	0.0007	1.9267	2.7377	3.4546	3.8475	19.7786
200	31	3	2	11	362.3704	29	1	800	345472.774	0.0007	3.8712	4.6882	5.4049	5.7685	19.7786
200	31	4	2	11	396.9222	56	1	800	345472.774	0.0007	5.792	6.6053	7.3219	7.72	19.7786
200	31	5	2	11	518.7789	29	1	800	345472.774	0.0007	7.7449	8.5555	9.2723	9.7921	19.7786
200	31	6	2	11	403.1089	29	1	800	345472.774	0.0007	9.8064	10.6226	11.3393	11.7437	19.7786
200	31	7	2	11	461.5462	29	1	800	345472.774	0.0007	11.7607	12.573	13.2897	13.7522	19.7786
200	31	8	2	11	292.2073	56	1	800	345472.774	0.0007	13.775	14.5901	15.3067	15.6003	19.7786
200	31	9	2	11	417.9933	56	1	800	345472.774	0.0007	15.6235	16.4403	17.1571	17.5761	19.7786
200	31	10	2	11	387.2586	56	1	800	345472.774	0.0007	17.5905	18.4073	19.1241	19.5125	19.7786
200	31	11	2	11	549.0327	56	1	800	345472.774	0.0007	19.5245	20.341	21.0578	21.6078	19.7786
200	31	12	2	11	329.0352	29	1	800	345472.774	0.0007	21.6313	22.4415	23.1583	23.4888	19.7786
200	32	1	1	11	325.1759	56	1	800	345527.6854	0.001	0.0201	0.8366	1.5533	1.8797	0
200	32	2	1	11	481.4794	29	1	800	345527.6854	0.001	1.9041	2.7203	3.4371	3.9198	0
200	32	3	1	11	376.4292	29	1	800	345527.6854	0.001	3.944	4.754	5.4708	5.8481	0
200	32	4	1	11	305.955	56	1	800	345527.6854	0.001	5.871	6.6878	7.4044	7.7116	0
200	32	5	1	11	278.9345	56	1	800	345527.6854	0.001	7.7426	8.5548	9.2715	9.5517	0
200	32	6	1	11	301.6684	56	1	800	345527.6854	0.001	9.5753	10.3885	11.1052	11.4078	0
200	32	7	1	11	331.0251	29	1	800	345527.6854	0.001	11.4225	12.2387	12.9556	13.2877	0
200	32	8	1	11	367.9376	29	1	800	345527.6854	0.001	13.3122	14.1225	14.8392	15.2081	0
200	32	9	1	11	306.6445	56	1	800	345527.6854	0.001	15.2238	16.0395	16.7563	17.0639	0
200	32	10	1	11	352.1183	29	1	800	345527.6854	0.001	17.0897	17.9065	18.6233	18.9765	0
200	32	11	1	11	339.0737	29	1	800	345527.6854	0.001	18.9923	19.8068	20.5236	20.864	0
200	32	12	1	11	262.3381	56	1	800	345527.6854	0.001	20.8947	21.7072	22.4241	22.6876	0
200	32	13	1	11	462.1007	56	1	800	345527.6854	0.001	22.7112	23.5242	24.2411	24.7041	0
200	32	14	1	11	260.4123	56	1	800	345527.6854	0.001	24.7281	25.5413	26.258	26.5193	0
200	32	15	1	11	372.1759	29	1	800	345527.6854	0.001	26.5424	27.3583	28.0749	28.4481	0
200	32	16	1	11	367.0955	29	1	800	345527.6854	0.001	28.4593	29.2752	29.9922	30.3603	0
200	32	17	1	11	441.6744	29	1	800	345527.6854	0.001	30.3753	31.1923	31.9092	32.3519	0
200	32	18	1	11	305.2271	56	1	800	345527.6854	0.001	32.376	33.1927	33.9096	34.2159	0
200	32	19	1	11	359.0657	29	1	800	345527.6854	0.001	34.2269	35.043	35.7599	36.12	0
200	32	20	1	11	353.7686	29	0	800	345527.6854	0.001	36.1441	36.9602	37.677	38.0318	0
200	32	21	1	11	645.7102	29	1	800	345527.6854	0.001	0.0123	0.8285	1.5453	2.1919	0
200	32	22	1	11	380.3008	56	1	800	345527.6854	0.001	2.2145	3.0289	3.7457	4.1272	0
200	32	23	1	11	390.9699	56	1	800	345527.6854	0.001	4.1457	4.9627	5.6794	6.0715	0
200	32	24	1	11	272.2731	56	1	800	345527.6854	0.001	6.0969	6.9129	7.6297	7.9032	0
200	32	25	1	11	351.3306	29	1	800	345527.6854	0.001	7.9335	8.7468	9.4634	9.8157	0
200	32	26	1	11	507.0053	29	1	800	345527.6854	0.001	9.8303	10.647	11.3639	11.8719	0
200	32	27	1	11	303.9339	56	1	800	345527.6854	0.001	11.8971	12.7141	13.4308	13.7358	0
200	32	28	1	11	381.7884	29	1	800	345527.6854	0.001	13.7481	14.5645	15.2812	15.6639	0
200	32	29	1	11	447.1003	56	1	800	345527.6854	0.001	15.6879	16.4981	17.2151	17.6632	0
200	32	30	1	11	358.7249	29	1	800	345527.6854	0.001	17.6881	18.4985	19.2153	19.5751	0
200	33	1	1	11	389.2733	29	1	800	345593.0782	0.0007	0.02	0.8367	1.5535	1.9437	0
200	33	2	1	11	631.0204	29	1	800	345593.0782	0.0007	1.9738	2.7872	3.5041	4.1361	0
200	33	3	1	11	311.2342	56	1	800	345593.0782	0.0007	4.1603	4.9708	5.6878	5.9999	0
200	33	4	1	11	364.818	29	1	800	345593.0782	0.0007	6.0255	6.8379	7.5547	7.9205	0
200	33	5	1	11	335.5039	56	1	800	345593.0782	0.0007	7.9438	8.7549	9.4717	9.8082	0
200	33	6	1	11	339.5662	29	1	800	345593.0782	0.0007	9.8217	10.6386	11.3554	11.696	0
200	33	7	1	11	359.6738	56	1	800	345593.0782	0.0007	11.7223	12.539	13.2558	13.6164	0
200	33	8	1	11	297.691	56	1	800	345593.0782	0.0007	13.6393	14.456	15.1728	15.4716	0
200	33	9	1	11	416.0898	29	1	800	345593.0782	0.0007	15.4963	16.3064	17.0232	17.4402	0
200	33	10	1	11	377.1288	29	1	800	345593.0782	0.0007	17.4613	18.2733	18.9902	19.3683	0
200	33	11	1	11	274.9136	56	1	800	345593.0782	0.0007	19.3904	20.2071	20.9238	21.2	0
200	33	12	1	11	699.3756	1	0	800	345593.0782	0.0007	21.224	22.0408	22.7575	23.4577	0
200	33	1	2	11	405.8315	56	1	800	345593.0782	0.0007	0.0111	0.8278	1.5447	1.9517	0.0021
200	33	2	2	11	407.2661	29	1	800	345593.0782	0.0007	1.9821	2.795	3.5117	3.92	0.0021
200	33	3	2	11	304.2108	56	1	800	345593.0782	0.0007	3.9458	4.762	5.4787	5.784	0.0021
200	33	4	2	11	438.1871	56	1	800	345593.0782	0.0007	5.7961	6.6125	7.3291	7.7683	0.0021
200	33	5	2	11	398.0205	29	1	800	345593.0782	0.0007	7.7793	8.596	9.3127	9.7119	0.0021
200	33	6	2	11	343.5475	29	1	800	345593.0782	0.0007	9.7361	10.5465	11.2634	11.6079	0.0021
200	33	7	2	11	419.8448	56	1	800	345593.0782	0.0007	11.63	12.4468	13.1636	13.5844	0.0021
200	33	8	2	11	307.8658	29	1	800	345593.0782	0.0007	13.5976	14.4137	15.1306	15.4397	0.0021
200	33	9	2	11	328.9923	56	1	800	345593.0782	0.0007	15.4649	16.2808	16.9978	17.3278	0.0021
200	33	10	2	11	429.2452	56	1	800	345593.0782	0.0007	17.3518	18.1645	18.8814	19.3117	0.0021
200	33	11	2	11	381.5827	29	1	800	345593.0782	0.0007	19.3352	20.1483	20.865	21.2478	0.0021
200	33	12	2	11	352.3484	29	1	800	345593.0782	0.0007	21.2708	22.0819	22.7987	23.1521	0.0021
200	34	1	1	12	419.9793	29	1	800	345657.8623	0.001	0.0228	0.8382	1.5548	1.9758	0
200	34	2	1	12	356.3672	29	1	800	345657.8623	0.001	1.9883	2.8051	3.5219	3.8793	0
200	34	3	1	12	304.2879	56	1	800	345657.8623	0.001	3.906	4.7221	5.4389	5.7441	0
200	34	4	1	12	364.7958	56	1	800	345657.8623	0.001	5.7562	6.5725	7.2894	7.6553	0
200	34	5	1	12	328.5525	56	1	800	345657.8623	0.001	7.6797	8.4894	9.2064	9.536	0
200	34	6	1	12	364.6306	56	1	800	345657.8623	0.001	9.5564	10.3732	11.0901	11.4557	0
200	34	7	1	12	432.1528	56	1	800	345657.8623	0.001	11.4803	12.2903	13.0071	13.4402	0
200	34	8	1	12	320.3639	29	1	800	345657.8623	0.001	13.4617	14.274	14.9907	15.312	0
200	34	9	1	12	348.8604	29	1	800	345657.8623	0.001	15.324	16.141	16.8579	17.2077	0
200	34	10	1	12	344.7999	29	1	800	345657.8623	0.001	17.2314	18.0413	18.7582	19.104	0
200	34	11	1	12	324.2912	56	1	800	345657.8623	0.001	19.1262	19.9415	20.6585	20.9837	0
200	34	12	1	12	288.4592	56	1	800	345657.8623	0.001	21.0084	21.8253	22.5423	22.8317	0
200	34	13	1	12	342.2342	56	1	800	345657.8623	0.001	22.8428	23.6591	24.3759	24.7192	0
200	34	14	1	12	378.6557	56	1	800	345657.8623	0.001	24.7433	25.5596	26.2763	26.6559	0
200	34	15	1	12	436.7174	29	1	800	345657.8623	0.001	26.6763	27.4931	28.2099	28.6476	0
200	34	16	1	12	485.5492	56	1	800	345657.8623	0.001	28.6602	29.4768	30.1937	30.6801	0
200	34	17	1	12	371.4407	29	1	800	345657.8623	0.001	30.6977	31.5106	32.2273	32.5997	0
200	34	18	1	12	406.2931	56	1	800	345657.8623	0.001	32.6111	33.4276	34.1445	34.5518	0
200	34	19	1	12	398.7861	29	1	800	345657.8623	0.001	34.5821	35.3947	36.1114	36.5113	0
200	34	20	1	12	392.6689	29	1	800	345657.8623	0.001	36.5353	37.345	38.0617	38.4556	0
200	34	21	1	12	466.4682	29	1	800	345657.8623	0.001	38.4789	39.2954	40.0121	40.4796	0
200	34	22	1	12	481.3925	29	1	800	345657.8623	0.001	40.5018	41.3125	42.0292	42.5116	0
200	34	23	1	12	327.843	29	1	800	345657.8623	0.001	42.5337	43.3461	44.0631	44.3919	0
200	34	24	1	12	307.5962	29	1	800	345657.8623	0.001	44.4154	45.2298	45.9467	46.2556	0
200	34	25	1	12	393.1085	29	1	800	345657.8623	0.001	46.28	47.0968	47.8137	48.2079	0
200	34	26	1	12	346.6532	29	1	800	345657.8623	0.001	48.2309	49.0473	49.764	50.1117	0
200	34	27	1	12	317.8709	56	1	800	345657.8623	0.001	50.1366	50.9475	51.6644	51.9833	0
200	34	28	1	12	427.2609	56	1	800	345657.8623	0.001	51.9979	52.8146	53.5313	53.9596	0
200	34	29	1	12	323.8546	56	1	800	345657.8623	0.001	53.9829	54.7983	55.5151	55.8399	0
200	34	30	1	12	328.3064	56	1	800	345657.8623	0.001	55.865	56.6821	57.3987	57.728	0
200	35	1	1	12	338.2418	56	1	800	345724.1398	0.0007	0.0202	0.8313	1.5482	1.8878	0
200	35	2	1	12	382.179	29	1	800	345724.1398	0.0007	1.9191	2.7318	3.4486	3.8318	0
200	35	3	1	12	321.1025	56	1	800	345724.1398	0.0007	3.8558	4.6654	5.3823	5.7044	0
200	35	4	1	12	438.0724	29	1	800	345724.1398	0.0007	5.7163	6.5324	7.2492	7.6882	0
200	35	5	1	12	365.9967	29	1	800	345724.1398	0.0007	7.6993	8.5162	9.2329	9.5999	0
200	35	6	1	12	441.4332	56	1	800	345724.1398	0.0007	9.6235	10.4333	11.15	11.5924	0
200	35	7	1	12	352.1203	56	0	800	345724.1398	0.0007	11.6172	12.4336	13.1503	13.5036	0
200	35	8	1	12	412.7497	56	1	800	345724.1398	0.0007	0.0129	0.8296	1.5464	1.9601	0
200	35	9	1	12	357.49	29	1	800	345724.1398	0.0007	1.9806	2.7966	3.5134	3.8719	0
200	35	10	1	12	699.4299	1	0	800	345724.1398	0.0007	3.8975	4.7137	5.4304	6.1307	0
200	35	11	1	12	364.9648	56	1	800	345724.1398	0.0007	0.0246	0.8369	1.5539	1.9199	0
200	35	12	1	12	320.4018	56	1	800	345724.1398	0.0007	1.9441	2.754	3.4708	3.7922	0
200	35	1	2	12	418.7535	29	1	800	345724.1398	0.0007	0.0223	0.832	1.5488	1.9685	3.7943
200	35	2	2	12	483.7574	29	1	800	345724.1398	0.0007	1.9826	2.7991	3.5159	4.0008	3.7943
200	35	3	2	12	353.6011	56	1	800	345724.1398	0.0007	4.0181	4.8327	5.5495	5.9041	3.7943
200	35	4	2	12	557.3515	29	1	800	345724.1398	0.0007	5.9161	6.7331	7.45	8.0084	3.7943
200	35	5	2	12	343.6036	56	1	800	345724.1398	0.0007	8.0336	8.8502	9.567	9.912	3.7943
200	35	6	2	12	444.0061	29	1	800	345724.1398	0.0007	9.9362	10.7507	11.4673	11.9123	3.7943
200	35	7	2	12	291.7814	56	1	800	345724.1398	0.0007	11.9362	12.7509	13.4677	13.7604	3.7943
200	35	8	2	12	641.4769	29	0	800	345724.1398	0.0007	13.7852	14.6013	15.318	15.9604	3.7943
200	35	9	2	12	652.9195	56	1	800	345724.1398	0.0007	0.024	0.8366	1.5534	2.2073	3.7943
200	35	10	2	12	380.8986	56	1	800	345724.1398	0.0007	2.2202	3.0371	3.7538	4.1357	3.7943
200	35	11	2	12	310.7778	56	1	800	345724.1398	0.0007	4.1604	4.9708	5.6875	5.9995	3.7943
200	35	12	2	12	275.8435	56	1	800	345724.1398	0.0007	6.0218	6.8377	7.5546	7.8317	3.7943
200	35	1	3	12	462.5193	29	1	800	345724.1398	0.0007	0.0111	0.8275	1.5444	2.0078	7.8344
200	35	2	3	12	396.8376	29	1	800	345724.1398	0.0007	2.0323	2.8446	3.5614	3.9593	7.8344
200	35	3	3	12	342.8126	56	1	800	345724.1398	0.0007	3.9828	4.795	5.5117	5.8555	7.8344
200	35	4	3	12	530.513	29	1	800	345724.1398	0.0007	5.8784	6.6955	7.4121	7.9436	7.8344
200	35	5	3	12	358.1356	56	1	800	345724.1398	0.0007	7.9683	8.779	9.4958	9.8549	7.8344
200	35	6	3	12	505.4331	29	1	800	345724.1398	0.0007	9.8799	10.696	11.4128	11.9195	7.8344
200	35	7	3	12	358.8408	56	1	800	345724.1398	0.0007	11.95	12.7631	13.48	13.84	7.8344
200	35	8	3	12	329.7191	56	1	800	345724.1398	0.0007	13.8638	14.6801	15.3969	15.7276	7.8344
200	35	9	3	12	325.5071	56	1	800	345724.1398	0.0007	15.7518	16.5638	17.2808	17.6072	7.8344
200	35	10	3	12	314.193	56	1	800	345724.1398	0.0007	17.6305	18.4476	19.1643	19.4795	7.8344
200	35	11	3	12	479.1094	56	1	800	345724.1398	0.0007	19.5044	20.3145	21.0313	21.5114	7.8344
200	35	12	3	12	373.4224	56	1	800	345724.1398	0.0007	21.5335	22.3482	23.0651	23.4394	7.8344
200	36	1	1	12	346.4785	56	1	800	345812.5508	0.0007	0.0095	0.8235	1.5404	1.8879	0
200	36	2	1	12	302.5862	56	1	800	345812.5508	0.0007	1.9111	2.7238	3.4407	3.7442	0
200	36	3	1	12	355.4674	56	1	800	345812.5508	0.0007	3.7573	4.5744	5.2911	5.6477	0
200	36	4	1	12	294.7024	56	1	800	345812.5508	0.0007	5.6794	6.4912	7.2081	7.5037	0
200	36	5	1	12	340.6066	29	1	800	345812.5508	0.0007	7.5283	8.3416	9.0584	9.3999	0
200	36	6	1	12	503.588	29	1	800	345812.5508	0.0007	9.4257	10.2419	10.9588	11.4636	0
200	36	7	1	12	397.3156	29	1	800	345812.5508	0.0007	11.4765	12.2924	13.0091	13.4074	0
200	36	8	1	12	359.4803	29	1	800	345812.5508	0.0007	13.4321	14.2427	14.9595	15.3205	0
200	36	9	1	12	369.9824	29	1	800	345812.5508	0.0007	15.3434	16.1597	16.8766	17.2476	0
200	36	10	1	12	284.7581	56	1	800	345812.5508	0.0007	17.2603	18.0767	18.7936	19.0795	0
200	36	11	1	12	362.9896	29	1	800	345812.5508	0.0007	19.0979	19.9105	20.6272	20.9916	0
200	36	12	1	12	430.6721	29	1	800	345812.5508	0.0007	21.0173	21.8274	22.5443	22.976	0
200	36	13	1	12	334.3142	29	1	800	345812.5508	0.0007	23.0009	23.8112	24.528	24.8634	0
200	36	14	1	12	306.7863	56	1	800	345812.5508	0.0007	24.8781	25.6949	26.4117	26.7198	0
200	36	15	1	12	384.0583	56	1	800	345812.5508	0.0007	26.7456	27.5619	28.2787	28.6638	0
200	36	16	1	12	282.0983	56	1	800	345812.5508	0.0007	28.6825	29.4956	30.2124	30.4955	0
200	36	17	1	12	344.8267	29	1	800	345812.5508	0.0007	30.5194	31.3293	32.0461	32.3919	0
200	36	18	1	12	381.0472	29	1	800	345812.5508	0.0007	32.4149	33.2298	33.9464	34.3291	0
200	36	19	1	12	342.276	56	1	800	345812.5508	0.0007	34.351	35.1634	35.8802	36.2235	0
200	36	20	1	12	346.8049	56	1	800	345812.5508	0.0007	36.2477	37.0637	37.7805	38.1282	0
200	36	21	1	12	309.5536	56	1	800	345812.5508	0.0007	38.1527	38.9642	39.6809	39.9915	0
200	36	22	1	12	322.4849	56	1	800	345812.5508	0.0007	40.015	40.8311	41.5478	41.8714	0
200	36	23	1	12	326.8573	29	1	800	345812.5508	0.0007	41.9017	42.7146	43.4316	43.7595	0
200	36	24	1	12	355.4884	29	1	800	345812.5508	0.0007	43.7819	44.5985	45.3153	45.6718	0
200	36	25	1	12	334.0161	56	1	800	345812.5508	0.0007	45.7016	46.5155	47.2323	47.5674	0
200	36	26	1	12	426.7949	56	1	800	345812.5508	0.0007	47.5822	48.3993	49.116	49.5438	0
200	36	27	1	12	371.3983	56	1	800	345812.5508	0.0007	49.5674	50.3829	51.0998	51.4721	0
200	36	28	1	12	390.506	56	1	800	345812.5508	0.0007	51.4832	52.3	53.0168	53.4082	0
200	36	29	1	12	343.2516	56	1	800	345812.5508	0.0007	53.434	54.2503	54.9671	55.3116	0
200	36	30	1	12	571.4922	56	1	800	345812.5508	0.0007	55.3363	56.1506	56.8675	57.44	0
200	37	1	1	13	434.3539	29	1	800	345949.5269	0.0008	0.0217	0.8323	1.5491	1.9845	0
200	37	2	1	13	394.1641	56	1	800	345949.5269	0.0008	2.0028	2.8161	3.5329	3.9281	0
200	37	3	1	13	347.5556	56	1	800	345949.5269	0.0008	3.9522	4.7664	5.4832	5.8318	0
200	37	4	1	13	406.9482	29	1	800	345949.5269	0.0008	5.8563	6.6668	7.3835	7.7916	0
200	37	5	1	13	392.3927	56	1	800	345949.5269	0.0008	7.8177	8.6338	9.3506	9.744	0
200	37	6	1	13	417.4764	29	1	800	345949.5269	0.0008	9.7674	10.5841	11.3011	11.7197	0
200	37	7	1	13	419.3472	56	1	800	345949.5269	0.0008	11.7399	12.5512	13.2679	13.6882	0
200	37	8	1	13	387.7188	29	1	800	345949.5269	0.0008	13.7013	14.5182	15.235	15.6237	0
200	37	9	1	13	422.0545	56	1	800	345949.5269	0.0008	15.6349	16.452	17.1687	17.5917	0
200	37	10	1	13	527.3479	29	1	800	345949.5269	0.0008	17.6031	18.4189	19.1359	19.6641	0
200	37	11	1	13	395.2628	29	1	800	345949.5269	0.0008	19.6884	20.5026	21.2195	21.6159	0
200	37	12	1	13	412.4837	56	1	800	345949.5269	0.0008	21.6379	22.453	23.1699	23.5837	0
200	38	1	1	13	339.9102	56	1	800	345980.8869	0.0007	0.0102	0.8229	1.5396	1.8805	0
200	38	2	1	13	414.5647	29	1	800	345980.8869	0.0007	1.9115	2.7232	3.44	3.8557	0
200	38	3	1	13	344.3099	29	1	800	345980.8869	0.0007	3.8802	4.6903	5.407	5.7523	0
200	38	4	1	13	475.8033	29	1	800	345980.8869	0.0007	5.7772	6.5906	7.3074	7.7842	0
200	38	5	1	13	338.1955	29	1	800	345980.8869	0.0007	7.8074	8.6242	9.3411	9.6803	0
200	38	6	1	13	293.8995	56	1	800	345980.8869	0.0007	9.6916	10.5079	11.2247	11.5198	0
200	38	7	1	13	267.4136	56	1	800	345980.8869	0.0007	11.5443	12.3584	13.0753	13.3438	0
200	38	8	1	13	322.7203	29	1	800	345980.8869	0.0007	13.3585	14.1753	14.8921	15.216	0
200	38	9	1	13	351.0225	29	1	800	345980.8869	0.0007	15.2421	16.0592	16.7758	17.1281	0
200	38	10	1	13	306.3096	56	1	800	345980.8869	0.0007	17.1429	17.9594	18.6762	18.9837	0
200	38	11	1	13	287.9897	56	1	800	345980.8869	0.0007	19.0138	19.8264	20.5432	20.8323	0
200	38	12	1	13	285.8669	56	1	800	345980.8869	0.0007	20.8436	21.6601	22.3771	22.6643	0
200	38	13	1	13	284.3115	56	1	800	345980.8869	0.0007	22.6777	23.4938	24.2105	24.4959	0
200	38	14	1	13	282.767	56	1	800	345980.8869	0.0007	24.5149	25.3276	26.0442	26.328	0
200	38	15	1	13	272.6717	56	1	800	345980.8869	0.0007	26.3512	27.1611	27.8779	28.1517	0
200	38	16	1	13	351.5251	29	1	800	345980.8869	0.0007	28.1809	28.9948	29.7117	30.0642	0
200	38	17	1	13	395.4289	29	1	800	345980.8869	0.0007	30.0817	30.8953	31.612	32.009	0
200	38	18	1	13	324.0142	29	1	800	345980.8869	0.0007	32.0344	32.8456	33.5625	33.8877	0
200	38	19	1	13	384.5208	29	1	800	345980.8869	0.0007	33.9133	34.7292	35.4461	35.8317	0
200	38	20	1	13	339.478	29	1	800	345980.8869	0.0007	35.8469	36.663	37.3798	37.7202	0
200	38	21	1	13	295.1024	56	1	800	345980.8869	0.0007	37.7506	38.5634	39.2801	39.5761	0
200	38	22	1	13	324.0797	56	1	800	345980.8869	0.0007	39.5973	40.4136	41.1304	41.4556	0
200	38	23	1	13	289.0797	56	1	800	345980.8869	0.0007	41.4809	42.2973	43.0143	43.3044	0
200	38	24	1	13	342.4116	29	1	800	345980.8869	0.0007	43.3341	44.1476	44.8646	45.208	0
200	38	25	1	13	418.2873	29	1	800	345980.8869	0.0007	45.232	46.0481	46.765	47.1843	0
200	38	26	1	13	291.5965	56	1	800	345980.8869	0.0007	47.199	48.0151	48.7319	49.0244	0
200	38	27	1	13	361.2151	29	1	800	345980.8869	0.0007	49.0493	49.8654	50.5823	50.9444	0
200	38	28	1	13	380.1005	29	1	800	345980.8869	0.0007	50.9696	51.7825	52.4993	52.8804	0
200	38	29	1	13	349.5582	29	1	800	345980.8869	0.0007	52.9038	53.7162	54.433	54.7838	0
200	38	30	1	13	321.9588	29	1	800	345980.8869	0.0007	54.7997	55.6165	56.3335	56.6564	0
200	39	1	1	13	390.7173	56	1	800	346107.6626	0.0015	0.0105	0.8267	1.5436	1.9353	0
200	39	2	1	13	384.5745	56	1	800	346107.6626	0.0015	1.9603	2.7771	3.494	3.8795	0
200	39	3	1	13	322.4592	56	1	800	346107.6626	0.0015	3.8941	4.7108	5.4278	5.7513	0
200	39	4	1	13	351.1615	29	1	800	346107.6626	0.0015	5.7775	6.5945	7.3112	7.6634	0
200	39	5	1	13	370.4325	29	1	800	346107.6626	0.0015	7.678	8.4948	9.2117	9.5833	0
200	39	6	1	13	373.7206	56	1	800	346107.6626	0.0015	9.595	10.4119	11.1287	11.5036	0
200	39	7	1	13	344.4828	29	1	800	346107.6626	0.0015	11.5294	12.3456	13.0625	13.408	0
200	39	8	1	13	411.9592	29	1	800	346107.6626	0.0015	13.4298	14.2459	14.9629	15.3758	0
200	39	9	1	13	309.0128	56	1	800	346107.6626	0.0015	15.397	16.213	16.9297	17.2398	0
200	39	10	1	13	329.5148	29	1	800	346107.6626	0.0015	17.2657	18.08	18.7968	19.1275	0
200	39	11	1	13	294.2788	56	1	800	346107.6626	0.0015	19.1517	19.9637	20.6805	20.9758	0
200	39	12	1	13	387.3355	29	1	800	346107.6626	0.0015	20.998	21.8184	22.5309	22.9194	0
200	40	1	1	14	317.7922	56	1	800	346135.3627	0.0008	0.0114	0.8283	1.5451	1.8639	0
200	40	2	1	14	330.464	56	1	800	346135.3627	0.0008	1.8814	2.6954	3.4122	3.7437	0
200	40	3	1	14	352.1924	29	1	800	346135.3627	0.0008	3.769	4.5791	5.2958	5.6495	0
200	40	4	1	14	330.7912	29	1	800	346135.3627	0.0008	5.6633	6.4793	7.1962	7.528	0
200	40	5	1	14	398.818	29	1	800	346135.3627	0.0008	7.5526	8.3631	9.0799	9.4797	0
200	40	6	1	14	304.6437	56	1	800	346135.3627	0.0008	9.5034	10.3135	11.0303	11.336	0
200	40	7	1	14	382.0233	56	1	800	346135.3627	0.0008	11.3469	12.1638	12.8806	13.2636	0
200	40	8	1	14	352.1873	29	1	800	346135.3627	0.0008	13.2877	14.0976	14.8144	15.1676	0
200	40	9	1	14	347.8996	29	1	800	346135.3627	0.0008	15.1812	15.998	16.7148	17.0637	0
200	40	10	1	14	343.1583	56	1	800	346135.3627	0.0008	17.0884	17.8984	18.615	18.9592	0
200	40	11	1	14	451.7459	29	1	800	346135.3627	0.0008	18.9836	19.7986	20.5153	20.968	0
200	40	12	1	14	362.9856	29	1	800	346135.3627	0.0008	20.9821	21.799	22.5159	22.8799	0
200	40	13	1	14	365.5956	56	1	800	346135.3627	0.0008	22.9053	23.7161	24.4329	24.7996	0
200	40	14	1	14	280.3935	56	1	800	346135.3627	0.0008	24.8193	25.6331	26.3499	26.6315	0
200	40	15	1	14	278.7915	56	1	800	346135.3627	0.0008	26.6567	27.4667	28.1835	28.4634	0
200	40	16	1	14	301.3378	56	1	800	346135.3627	0.0008	28.4858	29.3003	30.0171	30.3195	0
200	40	17	1	14	355.0459	29	1	800	346135.3627	0.0008	30.3343	31.1508	31.8675	32.2236	0
200	40	18	1	14	367.3702	29	1	800	346135.3627	0.0008	32.2351	33.0511	33.7679	34.1362	0
200	40	19	1	14	313.6533	29	1	800	346135.3627	0.0008	34.1585	34.9682	35.6849	35.9997	0
200	40	20	1	14	334.6919	56	1	800	346135.3627	0.0008	36.0249	36.8352	37.5519	37.8876	0
200	40	21	1	14	354.7351	56	1	800	346135.3627	0.0008	37.9022	38.7188	39.4356	39.7916	0
200	40	22	1	14	310.5411	29	1	800	346135.3627	0.0008	39.8031	40.6192	41.336	41.6477	0
200	40	23	1	14	555.3967	29	1	800	346135.3627	0.0008	41.6707	42.4863	43.203	43.7596	0
200	40	24	1	14	359.0827	29	1	800	346135.3627	0.0008	43.7902	44.6034	45.3201	45.6801	0
200	40	25	1	14	377.6551	56	1	800	346135.3627	0.0008	45.704	46.5203	47.2372	47.6158	0
200	40	26	1	14	395.4276	29	1	800	346135.3627	0.0008	47.6377	48.454	49.1708	49.5673	0
200	40	27	1	14	333.6833	56	1	800	346135.3627	0.0008	49.5899	50.4045	51.1214	51.456	0
200	40	28	1	14	345.2998	29	1	800	346135.3627	0.0008	51.4767	52.2882	53.0049	53.3513	0
200	40	29	1	14	293.8161	56	1	800	346135.3627	0.0008	53.377	54.1885	54.9053	55.2	0
200	40	30	1	14	355.1755	29	1	800	346135.3627	0.0008	55.2228	56.0388	56.7558	57.112	0
200	41	1	1	14	316.14	56	1	800	346196.1076	0.0007	0.0235	0.8385	1.5553	1.8725	0
200	41	2	1	14	328.6656	29	1	800	346196.1076	0.0007	1.8885	2.7055	3.4223	3.7524	0
200	41	3	1	14	453.1229	56	1	800	346196.1076	0.0007	3.7775	4.5892	5.306	5.7603	0
200	41	4	1	14	349.5379	56	1	800	346196.1076	0.0007	5.7729	6.5897	7.3062	7.6567	0
200	41	5	1	14	360.6258	56	1	800	346196.1076	0.0007	7.6731	8.4899	9.2068	9.5685	0
200	41	6	1	14	307.1929	56	1	800	346196.1076	0.0007	9.5926	10.4069	11.1238	11.4321	0
200	41	7	1	14	328.92	29	1	800	346196.1076	0.0007	11.4572	12.2741	12.9908	13.3207	0
200	41	8	1	14	332.5233	56	1	800	346196.1076	0.0007	13.345	14.1577	14.8745	15.2083	0
200	41	9	1	14	320.668	56	1	800	346196.1076	0.0007	15.2244	16.0414	16.7583	17.0799	0
200	41	10	1	14	310.229	56	1	800	346196.1076	0.0007	17.0916	17.9083	18.6253	18.9365	0
200	41	11	1	14	371.0496	29	1	800	346196.1076	0.0007	18.9606	19.7754	20.4922	20.8644	0
200	41	12	1	14	374.4216	29	1	800	346196.1076	0.0007	20.8759	21.6925	22.4094	22.785	0
200	42	1	1	14	277.9669	56	1	800	346225.5638	0.001	0.0238	0.8356	1.5525	1.8314	0
200	42	2	1	14	324.0028	56	1	800	346225.5638	0.001	1.8537	2.6693	3.3861	3.7112	0
200	42	3	1	14	289.0116	56	1	800	346225.5638	0.001	3.7365	4.553	5.2698	5.5597	0
200	42	4	1	14	295.3227	56	1	800	346225.5638	0.001	5.5708	6.3867	7.1035	7.3999	0
200	42	5	1	14	340.44	29	1	800	346225.5638	0.001	7.423	8.237	8.9538	9.2953	0
200	42	6	1	14	699.614	1	0	800	346225.5638	0.001	9.3214	10.1373	10.8542	11.5546	0
200	42	7	1	14	485.9266	29	1	800	346225.5638	0.001	0.0276	0.8439	1.5607	2.0478	0
200	42	8	1	14	389.0314	29	1	800	346225.5638	0.001	2.0609	2.8777	3.5944	3.9844	0
200	42	9	1	14	375.4451	56	1	800	346225.5638	0.001	3.9955	4.8114	5.5282	5.9045	0
200	42	10	1	14	377.5941	29	1	800	346225.5638	0.001	5.9287	6.745	7.4618	7.8404	0
200	42	11	1	14	356.0543	56	1	800	346225.5638	0.001	7.862	8.6787	9.3955	9.7525	0
200	42	12	1	14	334.2172	29	1	800	346225.5638	0.001	9.784	10.5958	11.3125	11.6478	0
200	42	13	1	14	307.0828	56	1	800	346225.5638	0.001	11.6626	12.4795	13.1963	13.5043	0
200	42	14	1	14	327.39	29	1	800	346225.5638	0.001	13.5301	14.3465	15.0633	15.3918	0
200	42	15	1	14	340.5126	29	1	800	346225.5638	0.001	15.4156	16.2303	16.947	17.2885	0
200	42	16	1	14	271.9421	56	1	800	346225.5638	0.001	17.3141	18.1306	18.8474	19.121	0
200	42	17	1	14	422.9408	29	1	800	346225.5638	0.001	19.1315	19.9476	20.6644	21.0893	0
200	42	18	1	14	319.5655	56	1	800	346225.5638	0.001	21.1192	21.9312	22.6481	22.9687	0
200	42	19	1	14	332.7487	29	1	800	346225.5638	0.001	22.9818	23.7983	24.515	24.8487	0
200	42	20	1	14	327.9266	56	1	800	346225.5638	0.001	24.8653	25.682	26.3988	26.7279	0
200	42	21	1	14	300.2875	56	1	800	346225.5638	0.001	26.7538	27.5656	28.2824	28.5839	0
200	42	22	1	14	402.5841	29	1	800	346225.5638	0.001	28.6029	29.4162	30.1328	30.5363	0
200	42	23	1	14	420.4526	56	1	800	346225.5638	0.001	30.5495	31.3663	32.0831	32.5045	0
200	42	24	1	14	341.0997	56	1	800	346225.5638	0.001	32.5167	33.3334	34.0502	34.3923	0
200	42	25	1	14	320.3709	56	1	800	346225.5638	0.001	34.4172	35.2337	35.9507	36.2722	0
200	42	26	1	14	333.4257	29	1	800	346225.5638	0.001	36.2847	37.1007	37.8176	38.1523	0
200	42	27	1	14	394.1712	29	1	800	346225.5638	0.001	38.1676	38.9845	39.7013	40.0964	0
200	42	28	1	14	419.4751	29	1	800	346225.5638	0.001	40.1209	40.935	41.6517	42.0722	0
200	42	29	1	14	356.1507	56	1	800	346225.5638	0.001	42.0858	42.9019	43.6187	43.9761	0
200	42	30	1	14	319.4811	56	1	800	346225.5638	0.001	44.0027	44.8188	45.5357	45.8563	0
200	43	1	1	15	345.7739	56	1	800	346286.8121	0.0007	0.0082	0.8247	1.5415	1.8883	0
200	43	2	1	15	373.6628	29	1	800	346286.8121	0.0007	1.9125	2.7251	3.4419	3.8167	0
200	43	3	1	15	343.6398	56	1	800	346286.8121	0.0007	3.8427	4.6588	5.3755	5.7202	0
200	43	4	1	15	251.5504	56	1	800	346286.8121	0.0007	5.7437	6.5592	7.2758	7.5284	0
200	43	5	1	15	282.4365	56	1	800	346286.8121	0.0007	7.5427	8.3594	9.0763	9.3598	0
200	43	6	1	15	361.2068	29	1	800	346286.8121	0.0007	9.3832	10.1931	10.9099	11.2722	0
200	43	7	1	15	379.7905	29	1	800	346286.8121	0.0007	11.2977	12.1102	12.8269	13.208	0
200	43	8	1	15	374.8155	29	1	800	346286.8121	0.0007	13.2317	14.0438	14.7608	15.1365	0
200	43	9	1	15	345.1943	29	1	800	346286.8121	0.0007	15.1615	15.9775	16.6944	17.0405	0
200	43	10	1	15	260.8857	56	1	800	346286.8121	0.0007	17.0638	17.8779	18.5947	18.8565	0
200	43	11	1	15	347.3546	56	0	800	346286.8121	0.0007	18.8805	19.6949	20.4117	20.7603	0
200	43	12	1	15	553.6918	29	1	800	346286.8121	0.0007	0.0233	0.8396	1.5566	2.1115	0
200	43	1	2	15	518.6988	29	1	800	346286.8121	0.0007	0.0237	0.8351	1.5521	2.0718	2.1136
200	43	2	2	15	324.0688	56	1	800	346286.8121	0.0007	2.0863	2.9023	3.619	3.944	2.1136
200	43	3	2	15	399.9312	29	1	800	346286.8121	0.0007	3.9695	4.7859	5.5027	5.9037	2.1136
200	43	4	2	15	361.3454	29	1	800	346286.8121	0.0007	5.9212	6.7363	7.4532	7.8156	2.1136
200	43	5	2	15	428.34	29	1	800	346286.8121	0.0007	7.8404	8.6533	9.3701	9.7995	2.1136
200	43	6	2	15	428.6999	29	1	800	346286.8121	0.0007	9.8215	10.637	11.3539	11.7836	2.1136
200	43	7	2	15	341.6149	29	1	800	346286.8121	0.0007	11.8075	12.6209	13.3376	13.6801	2.1136
200	43	8	2	15	368.1321	56	1	800	346286.8121	0.0007	13.7046	14.5211	15.2381	15.6074	2.1136
200	43	9	2	15	331.999	56	1	800	346286.8121	0.0007	15.6211	16.4382	17.1549	17.4879	2.1136
200	43	10	2	15	448.0846	56	1	800	346286.8121	0.0007	17.512	18.3219	19.0387	19.4878	2.1136
200	43	11	2	15	335.4459	56	1	800	346286.8121	0.0007	19.5104	20.3221	21.0391	21.3756	2.1136
200	43	12	2	15	404.1597	56	1	800	346286.8121	0.0007	21.3891	22.2059	22.9227	23.3278	2.1136
200	44	1	1	15	451.4605	29	1	800	346348.672	0.0007	0.0177	0.8306	1.5474	2	0
200	44	2	1	15	315.1694	56	1	800	346348.672	0.0007	2.0148	2.831	3.5477	3.8641	0
200	44	3	1	15	312.6065	56	1	800	346348.672	0.0007	3.8813	4.698	5.415	5.7286	0
200	44	4	1	15	309.4512	56	1	800	346348.672	0.0007	5.7537	6.5652	7.2819	7.5923	0
200	44	5	1	15	394.0648	29	1	800	346348.672	0.0007	7.6157	8.4321	9.1488	9.5443	0
200	44	6	1	15	388.0364	29	1	800	346348.672	0.0007	9.5695	10.3822	11.0992	11.4882	0
200	44	7	1	15	326.4022	29	1	800	346348.672	0.0007	11.4996	12.3162	13.0329	13.3603	0
200	44	8	1	15	354.4288	29	1	800	346348.672	0.0007	13.3848	14.1998	14.9166	15.2722	0
200	44	9	1	15	333.9528	56	1	800	346348.672	0.0007	15.2836	16.1001	16.8171	17.1521	0
200	44	10	1	15	330.7977	56	1	800	346348.672	0.0007	17.1704	17.984	18.7007	19.0325	0
200	44	11	1	15	302.8329	56	1	800	346348.672	0.0007	19.0578	19.8676	20.5844	20.8882	0
200	44	12	1	15	308.6693	56	1	800	346348.672	0.0007	20.9016	21.7178	22.4347	22.7444	0
200	44	13	1	15	289.1261	56	1	800	346348.672	0.0007	22.7733	23.5851	24.3018	24.5921	0
200	44	14	1	15	318.5048	29	1	800	346348.672	0.0007	24.6184	25.4353	26.1522	26.4719	0
200	44	15	1	15	331.6945	56	1	800	346348.672	0.0007	26.4854	27.3024	28.019	28.352	0
200	44	16	1	15	288.3419	56	1	800	346348.672	0.0007	28.369	29.186	29.9028	30.1921	0
200	44	17	1	15	398.5245	29	1	800	346348.672	0.0007	30.2034	31.0196	31.7366	32.1361	0
200	44	18	1	15	304.5187	56	1	800	346348.672	0.0007	32.1581	32.97	33.6868	33.9926	0
200	44	19	1	15	261.3835	56	1	800	346348.672	0.0007	34.0038	34.8205	35.5372	35.7998	0
200	44	20	1	15	253.0808	56	1	800	346348.672	0.0007	35.8253	36.6374	37.3543	37.6085	0
200	44	21	1	15	364.908	29	1	800	346348.672	0.0007	37.6218	38.4377	39.1545	39.5204	0
200	44	22	1	15	351.9519	29	1	800	346348.672	0.0007	39.5446	40.3548	41.0716	41.4245	0
200	44	23	1	15	370.6114	29	1	800	346348.672	0.0007	41.439	42.2551	42.9721	43.3438	0
200	44	24	1	15	333.7851	29	1	800	346348.672	0.0007	43.3554	44.1722	44.8891	45.224	0
200	44	25	1	15	266.5943	56	1	800	346348.672	0.0007	45.2429	46.0558	46.7727	47.0402	0
200	44	26	1	15	329.5948	29	1	800	346348.672	0.0007	47.0576	47.8729	48.5897	48.9205	0
200	44	27	1	15	366.0871	56	1	800	346348.672	0.0007	48.9465	49.7566	50.4733	50.8403	0
200	44	28	1	15	296.9372	56	1	800	346348.672	0.0007	50.8572	51.6735	52.3904	52.6883	0
200	44	29	1	15	286.5942	56	1	800	346348.672	0.0007	52.7131	53.5239	54.2407	54.5282	0
200	44	30	1	15	301.0231	56	1	800	346348.672	0.0007	54.5414	55.3575	56.0744	56.3764	0
200	45	1	1	15	315.8296	29	1	800	346409.0149	0.0007	0.0246	0.8381	1.5548	1.8717	0
200	45	2	1	15	264.2825	56	1	800	346409.0149	0.0007	1.8945	2.705	3.422	3.6875	0
200	45	3	1	15	407.6542	29	1	800	346409.0149	0.0007	3.7102	4.5221	5.2389	5.6477	0
200	45	4	1	15	464.5101	29	1	800	346409.0149	0.0007	5.6721	6.4892	7.206	7.6714	0
200	45	5	1	15	463.6524	56	1	800	346409.0149	0.0007	7.6964	8.5061	9.223	9.6876	0
200	45	6	1	15	350.4619	29	1	800	346409.0149	0.0007	9.7109	10.5232	11.2401	11.5915	0
200	45	7	1	15	697.9919	29	0	800	346409.0149	0.0007	11.6076	12.4235	13.1403	13.8393	0
200	45	8	1	15	699.903	1	0	800	346409.0149	0.0007	0.0242	0.8364	1.5532	2.254	0
200	45	9	1	15	461.97	29	1	800	346409.0149	0.0007	0.0239	0.8366	1.5534	2.0164	0
200	45	10	1	15	324.6101	56	1	800	346409.0149	0.0007	2.0369	2.8536	3.5705	3.8961	0
200	45	11	1	15	393.3512	29	1	800	346409.0149	0.0007	3.9212	4.7374	5.4542	5.8485	0
200	45	12	1	15	378.9355	56	1	800	346409.0149	0.0007	5.873	6.6878	7.4046	7.7846	0
200	45	1	2	15	368.7221	29	1	800	346409.0149	0.0007	0.0101	0.8255	1.5423	1.9123	7.7867
200	45	2	2	15	283.3925	56	1	800	346409.0149	0.0007	1.9258	2.7425	3.4594	3.7437	7.7867
200	45	3	2	15	386.5214	29	1	800	346409.0149	0.0007	3.7597	4.5762	5.293	5.6804	7.7867
200	45	4	2	15	300.7493	56	1	800	346409.0149	0.0007	5.6936	6.5099	7.2268	7.5285	7.7867
200	45	5	2	15	418.2858	29	1	800	346409.0149	0.0007	7.5444	8.3602	9.077	9.4963	7.7867
200	45	6	2	15	394.6131	29	1	800	346409.0149	0.0007	9.5109	10.3273	11.0442	11.4399	7.7867
200	45	7	2	15	324.8876	56	1	800	346409.0149	0.0007	11.4655	12.2777	12.9944	13.3202	7.7867
200	45	8	2	15	352.5124	29	1	800	346409.0149	0.0007	13.3444	14.1614	14.8782	15.2318	7.7867
200	45	9	2	15	277.0984	56	1	800	346409.0149	0.0007	15.2489	16.0617	16.7784	17.0564	7.7867
200	45	10	2	15	298.7719	56	1	800	346409.0149	0.0007	17.0795	17.8954	18.6124	18.9126	7.7867
200	45	11	2	15	424.892	29	1	800	346409.0149	0.0007	18.9293	19.7457	20.4627	20.8885	7.7867
200	45	12	2	15	369.4075	56	1	800	346409.0149	0.0007	20.9125	21.7295	22.4462	22.8165	7.7867
200	46	1	1	16	369.0763	29	1	800	346464.7591	0.0007	0.0094	0.8253	1.5421	1.9123	0
200	46	2	1	16	292.0818	56	1	800	346464.7591	0.0007	1.926	2.7423	3.4592	3.7523	0
200	46	3	1	16	313.8709	56	1	800	346464.7591	0.0007	3.7763	4.5926	5.3095	5.6244	0
200	46	4	1	16	326.9482	56	1	800	346464.7591	0.0007	5.6487	6.4597	7.1765	7.5044	0
200	46	5	1	16	339.6072	56	1	800	346464.7591	0.0007	7.5287	8.3434	9.0602	9.4008	0
200	46	6	1	16	278.1776	56	1	800	346464.7591	0.0007	9.4311	10.2438	10.9606	11.24	0
200	46	7	1	16	405.0684	29	1	800	346464.7591	0.0007	11.2657	12.0776	12.7942	13.2002	0
200	46	8	1	16	398.3491	29	1	800	346464.7591	0.0007	13.2117	14.0278	14.7446	15.144	0
200	46	9	1	16	384.3467	29	1	800	346464.7591	0.0007	15.1678	15.9782	16.6949	17.0803	0
200	46	10	1	16	330.148	29	1	800	346464.7591	0.0007	17.0975	17.9118	18.6287	18.9601	0
200	46	11	1	16	374.8811	56	1	800	346464.7591	0.0007	18.9846	19.7955	20.5125	20.8884	0
200	46	12	1	16	369.159	56	1	800	346464.7591	0.0007	20.9127	21.7292	22.4461	22.8162	0
200	46	13	1	16	315.7324	56	1	800	346464.7591	0.0007	22.8294	23.6463	24.363	24.68	0
200	46	14	1	16	297.006	56	1	800	346464.7591	0.0007	24.6965	25.5133	26.2301	26.5282	0
200	46	15	1	16	303.1296	56	1	800	346464.7591	0.0007	26.5515	27.3637	28.0804	28.3845	0
200	46	16	1	16	276.3857	56	1	800	346464.7591	0.0007	28.3977	29.2139	29.9309	30.2082	0
200	46	17	1	16	307.2137	56	1	800	346464.7591	0.0007	30.2331	31.0477	31.7645	32.0727	0
200	46	18	1	16	335.9422	56	1	800	346464.7591	0.0007	32.0981	32.9146	33.6315	33.9684	0
200	46	19	1	16	323.8696	56	1	800	346464.7591	0.0007	33.9816	34.7985	35.5152	35.8401	0
200	46	20	1	16	344.9421	56	1	800	346464.7591	0.0007	35.8654	36.6821	37.3989	37.7448	0
200	46	21	1	16	332.4322	56	1	800	346464.7591	0.0007	37.7694	38.5825	39.2992	39.6326	0
200	46	22	1	16	304.6924	56	1	800	346464.7591	0.0007	39.6555	40.466	41.183	41.4886	0
200	46	23	1	16	454.1119	29	1	800	346464.7591	0.0007	41.4998	42.3165	43.0334	43.4885	0
200	46	24	1	16	389.9187	56	1	800	346464.7591	0.0007	43.5006	44.3168	45.0338	45.4246	0
200	46	25	1	16	319.0472	56	1	800	346464.7591	0.0007	45.4502	46.2673	46.9841	47.3042	0
200	46	26	1	16	363.7941	29	1	800	346464.7591	0.0007	47.3178	48.1355	48.851	49.2159	0
200	46	27	1	16	343.6123	29	1	800	346464.7591	0.0007	49.2414	50.0513	50.768	51.1125	0
200	46	28	1	16	291.2041	56	1	800	346464.7591	0.0007	51.1397	51.9516	52.6684	52.9606	0
200	46	29	1	16	392.6474	29	1	800	346464.7591	0.0007	52.9853	53.8021	54.5188	54.9125	0
200	46	30	1	16	378.1385	56	1	800	346464.7591	0.0007	54.9366	55.7525	56.4692	56.8483	0
200	47	1	1	16	308.2949	56	1	800	346525.3714	0.0011	0.0234	0.8377	1.5545	1.864	0
200	47	2	1	16	290.1518	56	1	800	346525.3714	0.0011	1.8878	2.7048	3.4214	3.7125	0
200	47	3	1	16	271.5615	56	1	800	346525.3714	0.0011	3.7384	4.555	5.2719	5.5444	0
200	47	4	1	16	414.2904	56	1	800	346525.3714	0.0011	5.5556	6.3721	7.0888	7.5041	0
200	47	5	1	16	295.2498	29	1	800	346525.3714	0.0011	7.5289	8.3391	9.0559	9.3521	0
200	47	6	1	16	405.3851	56	1	800	346525.3714	0.0011	9.3726	10.1894	10.9062	11.3125	0
200	47	7	1	16	699.7205	1	0	800	346525.3714	0.0011	11.3236	12.1397	12.8566	13.5572	0
200	47	8	1	16	672.5457	56	1	800	346525.3714	0.0011	0.0257	0.8418	1.5585	2.2321	0
200	47	9	1	16	510.8001	29	1	800	346525.3714	0.0011	2.263	3.0755	3.7922	4.304	0
200	47	10	1	16	331.1894	56	1	800	346525.3714	0.0011	4.3259	5.1426	5.8593	6.1916	0
200	47	11	1	16	335.3294	56	1	800	346525.3714	0.0011	6.2102	7.0262	7.7429	8.0793	0
200	47	12	1	16	324.4844	29	1	800	346525.3714	0.0011	8.0933	8.9098	9.6267	9.9522	0
200	47	1	2	16	326.7094	56	1	800	346525.3714	0.0011	0.0244	0.8361	1.5529	1.8806	9.9543
200	47	2	2	16	434.6744	29	0	800	346525.3714	0.0011	1.9039	2.7199	3.4367	3.8723	9.9543
200	47	3	2	16	336.2748	56	1	800	346525.3714	0.0011	0.0261	0.8424	1.5592	1.8964	9.9543
200	47	4	2	16	371.9665	56	1	800	346525.3714	0.0011	1.9098	2.7262	3.4429	3.8159	9.9543
200	47	5	2	16	351.0775	29	1	800	346525.3714	0.0011	3.8273	4.6431	5.3599	5.712	9.9543
200	47	6	2	16	322.4697	56	1	800	346525.3714	0.0011	5.7267	6.5435	7.2603	7.584	9.9543
200	47	7	2	16	319.0923	29	1	800	346525.3714	0.0011	7.6104	8.4272	9.1439	9.464	9.9543
200	47	8	2	16	332.1619	56	1	800	346525.3714	0.0011	9.4777	10.2942	11.0109	11.3441	9.9543
200	47	9	2	16	440.7296	29	1	800	346525.3714	0.0011	11.3611	12.178	12.8947	13.3363	9.9543
200	47	10	2	16	399.5897	56	1	800	346525.3714	0.0011	13.3617	14.1783	14.895	15.2959	9.9543
200	47	11	2	16	481.4298	56	1	800	346525.3714	0.0011	15.3124	16.1286	16.8454	17.3281	9.9543
200	47	12	2	16	416.3253	29	1	800	346525.3714	0.0011	17.3454	18.1623	18.8792	19.2965	9.9543
200	47	1	3	16	380.0134	29	1	800	346525.3714	0.0011	0.0135	0.8305	1.5472	1.9281	19.2986
200	47	2	3	16	342.0788	56	1	800	346525.3714	0.0011	1.9528	2.7641	3.4809	3.824	19.2986
200	47	3	3	16	377.5955	29	1	800	346525.3714	0.0011	3.8483	4.6646	5.3813	5.7599	19.2986
200	47	4	3	16	307.1384	56	1	800	346525.3714	0.0011	5.7855	6.5982	7.3151	7.6233	19.2986
200	47	5	3	16	288.1499	56	1	800	346525.3714	0.0011	7.6492	8.4654	9.1821	9.4713	19.2986
200	47	6	3	16	407.1382	29	1	800	346525.3714	0.0011	9.4831	10.299	11.0158	11.4238	19.2986
200	47	7	3	16	279.7283	56	1	800	346525.3714	0.0011	11.4538	12.2661	12.9828	13.2635	19.2986
200	47	8	3	16	437.7519	56	1	800	346525.3714	0.0011	13.2886	14.0998	14.8165	15.2554	19.2986
200	47	9	3	16	366.7626	29	1	800	346525.3714	0.0011	15.2671	16.0834	16.8001	17.1678	19.2986
200	47	10	3	16	361.6991	56	1	800	346525.3714	0.0011	17.1908	18.0005	18.7172	19.0799	19.2986
200	47	11	3	16	356.8537	29	1	800	346525.3714	0.0011	19.1053	19.9174	20.6343	20.9921	19.2986
200	47	12	3	16	270.8181	56	1	800	346525.3714	0.0011	21.0176	21.8344	22.5514	22.8234	19.2986
200	48	1	1	16	316.2843	56	1	800	346621.4921	0.0007	0.0215	0.8378	1.5547	1.872	0
200	48	2	1	16	313.0468	56	1	800	346621.4921	0.0007	1.8895	2.705	3.4219	3.7361	0
200	48	3	1	16	430.4857	29	1	800	346621.4921	0.0007	3.7621	4.5719	5.2887	5.7202	0
200	48	4	1	16	302.5371	56	1	800	346621.4921	0.0007	5.7436	6.5558	7.2724	7.5759	0
200	48	5	1	16	339.2257	29	1	800	346621.4921	0.0007	7.5893	8.4059	9.1235	9.4636	0
200	48	6	1	16	263.412	56	1	800	346621.4921	0.0007	9.4898	10.3064	11.0233	11.2877	0
200	48	7	1	16	342.4455	29	1	800	346621.4921	0.0007	11.3132	12.1234	12.8402	13.1837	0
200	48	8	1	16	386.4784	29	1	800	346621.4921	0.0007	13.208	14.0237	14.7405	15.1279	0
200	48	9	1	16	324.3505	56	1	800	346621.4921	0.0007	15.1418	15.9576	16.6743	16.9996	0
200	48	10	1	16	400.2917	29	1	800	346621.4921	0.0007	17.0241	17.8412	18.5579	18.9594	0
200	48	11	1	16	290.6736	56	1	800	346621.4921	0.0007	18.9754	19.7915	20.5083	20.7999	0
200	48	12	1	16	320.0654	29	1	800	346621.4921	0.0007	20.8255	21.6418	22.3587	22.6798	0
200	48	13	1	16	308.6207	56	1	800	346621.4921	0.0007	22.6922	23.5088	24.2256	24.5355	0
200	48	14	1	16	338.24	56	1	800	346621.4921	0.0007	24.5601	25.376	26.0926	26.432	0
200	48	15	1	16	342.0351	29	1	800	346621.4921	0.0007	26.4436	27.2596	27.9765	28.3196	0
200	48	16	1	16	321.413	56	1	800	346621.4921	0.0007	28.3449	29.1599	29.8767	30.1994	0
200	48	17	1	16	310.9956	56	1	800	346621.4921	0.0007	30.2111	31.0269	31.7438	32.0562	0
200	48	18	1	16	340.313	29	1	800	346621.4921	0.0007	32.0812	32.894	33.6107	33.952	0
200	48	19	1	16	343.7963	29	1	800	346621.4921	0.0007	33.9785	34.7943	35.5111	35.8559	0
200	48	20	1	16	411.0985	56	1	800	346621.4921	0.0007	35.878	36.6946	37.4116	37.8237	0
200	48	21	1	16	419.8745	29	1	800	346621.4921	0.0007	37.8491	38.6618	39.3787	39.7996	0
200	48	22	1	16	404.5429	29	1	800	346621.4921	0.0007	39.8119	40.6287	41.3456	41.7512	0
200	48	23	1	16	326.3589	56	1	800	346621.4921	0.0007	41.763	42.5792	43.296	43.6236	0
200	48	24	1	16	299.4424	56	1	800	346621.4921	0.0007	43.6488	44.4628	45.1796	45.4805	0
200	48	25	1	16	352.8554	29	1	800	346621.4921	0.0007	45.4964	46.3132	47.0299	47.3838	0
200	48	26	1	16	411.8435	29	1	800	346621.4921	0.0007	47.3975	48.2136	48.9304	49.3434	0
