SUBID	BLOCK	TRIAL	REP	RUNID	RT	RESP	ACC	RSIJIT	EV_START	EV_BLOCK	EV_TRIAL	EV_RETRIEVAL	EV_PROBE	EV_RESP	EV_BLEND
201	1	1	1	1	405.1708	56	1	800	1857757.85	0.0062	0.0175	0.8287	1.546	1.9661	0
201	1	2	1	1	358.3123	56	1	800	1857757.85	0.0062	2.0041	2.8158	3.5335	3.895	0
201	1	3	1	1	338.3806	56	1	800	1857757.85	0.0062	3.9218	4.7336	5.4394	5.7817	0
201	1	4	1	1	506.7083	29	1	800	1857757.85	0.0062	5.8042	6.6161	7.322	7.832	0
201	1	5	1	1	413.0966	29	0	800	1857757.85	0.0062	7.8516	8.6633	9.3692	9.7854	0
201	1	6	1	1	528.476	56	1	800	1857757.85	0.0062	0.0209	0.8327	1.5502	2.082	0
201	1	7	1	1	440.3487	56	1	800	1857757.85	0.0062	2.1032	2.9151	3.6211	4.0647	0
201	1	8	1	1	365.5078	56	0	800	1857757.85	0.0062	4.0917	4.9035	5.6095	5.9783	0
201	1	9	1	1	420.3421	56	1	800	1857757.85	0.0062	0.0473	0.8591	1.5768	2.0009	0
201	1	10	1	1	519.205	29	1	800	1857757.85	0.0062	2.0239	2.8358	3.5419	4.0644	0
201	1	11	1	1	549.793	56	0	800	1857757.85	0.0062	4.083	4.8947	5.6007	6.1541	0
201	1	12	1	1	119.6042	29	1	800	1857757.85	0.0062	0.0262	0.838	1.5557	1.6786	0
201	1	1	2	1	497.7812	29	1	800	1857757.85	0.0062	0.0083	0.8202	1.5261	2.0271	1.6881
201	1	2	2	1	476.1693	56	0	800	1857757.85	0.0062	2.0437	2.8556	3.5616	4.041	1.6881
201	1	3	2	1	698.3077	1	0	800	1857757.85	0.0062	0.0315	0.8434	1.561	2.2624	1.6881
201	1	4	2	1	697.875	1	0	800	1857757.85	0.0062	0.0287	0.8406	1.5582	2.2591	1.6881
201	1	5	2	1	452.9199	29	1	800	1857757.85	0.0062	0.0291	0.841	1.5587	2.0192	1.6881
201	1	6	2	1	485.5544	56	1	800	1857757.85	0.0062	2.0411	2.853	3.5588	4.048	1.6881
201	1	7	2	1	477.7299	56	1	800	1857757.85	0.0062	4.0647	4.8766	5.5826	6.0639	1.6881
201	1	8	2	1	383.5087	29	1	800	1857757.85	0.0062	6.0884	6.9003	7.6061	7.9929	1.6881
201	1	9	2	1	427.5596	56	1	800	1857757.85	0.0062	8.0179	8.8298	9.5357	9.9665	1.6881
201	1	10	2	1	310.7784	29	1	800	1857757.85	0.0062	9.9947	10.8064	11.5123	11.8267	1.6881
201	1	11	2	1	456.2699	29	1	800	1857757.85	0.0062	11.8536	12.6654	13.3712	13.8314	1.6881
201	1	12	2	1	312.6045	56	1	800	1857757.85	0.0062	13.8537	14.6656	15.3716	15.6875	1.6881
201	1	1	3	1	483.1292	29	1	800	1857757.85	0.0062	0.0186	0.8305	1.5365	2.0227	15.6964
201	1	2	3	1	330.9211	29	1	800	1857757.85	0.0062	2.0424	2.8542	3.5601	3.8943	15.6964
201	1	3	3	1	318.4343	56	1	800	1857757.85	0.0062	3.9131	4.7249	5.4307	5.7524	15.6964
201	1	4	3	1	303.6177	56	1	800	1857757.85	0.0062	5.772	6.5841	7.2897	7.5966	15.6964
201	1	5	3	1	353.0245	29	1	800	1857757.85	0.0062	7.6192	8.4311	9.1369	9.4932	15.6964
201	1	6	3	1	291.5691	56	1	800	1857757.85	0.0062	9.5134	10.3253	11.0313	11.3269	15.6964
201	1	7	3	1	287.4346	29	0	800	1857757.85	0.0062	11.3489	12.1607	12.8667	13.1574	15.6964
201	1	8	3	1	535.8011	29	1	800	1857757.85	0.0062	0.0247	0.8365	1.5542	2.0936	15.6964
201	1	9	3	1	340.6368	56	1	800	1857757.85	0.0062	2.119	2.9308	3.6367	3.9807	15.6964
201	1	10	3	1	364.1739	29	1	800	1857757.85	0.0062	4.0015	4.8133	5.5192	5.8867	15.6964
201	1	11	3	1	316.3146	56	0	800	1857757.85	0.0062	5.9075	6.7193	7.4252	7.746	15.6964
201	1	12	3	1	416.1799	56	1	800	1857757.85	0.0062	0.0306	0.8425	1.5602	1.9795	15.6964
201	1	1	4	1	412.9782	29	1	800	1857757.85	0.0062	0.0148	0.8271	1.5326	1.9488	1.9909
201	1	2	4	1	306.3273	56	1	800	1857757.85	0.0062	2.0033	2.8151	3.521	3.8306	1.9909
201	1	3	4	1	319.2226	56	1	800	1857757.85	0.0062	3.8624	4.6741	5.38	5.7026	1.9909
201	1	4	4	1	385.2099	29	1	800	1857757.85	0.0062	5.7212	6.533	7.2389	7.6277	1.9909
201	1	5	4	1	354.744	56	1	800	1857757.85	0.0062	7.6507	8.4625	9.1685	9.5266	1.9909
201	1	6	4	1	277.398	56	1	800	1857757.85	0.0062	9.545	10.3568	11.0627	11.3434	1.9909
201	1	7	4	1	343.233	29	1	800	1857757.85	0.0062	11.3687	12.1805	12.8865	13.2331	1.9909
201	1	8	4	1	380.9037	56	1	800	1857757.85	0.0062	13.2513	14.063	14.7689	15.1532	1.9909
201	1	9	4	1	360.5929	29	1	800	1857757.85	0.0062	15.1806	15.9926	16.6986	17.0624	1.9909
201	1	10	4	1	414.9047	29	1	800	1857757.85	0.0062	17.0867	17.8985	18.6045	19.0228	1.9909
201	1	11	4	1	438.2394	56	1	800	1857757.85	0.0062	19.0398	19.8516	20.5581	20.9996	1.9909
201	1	12	4	1	483.0548	29	1	800	1857757.85	0.0062	21.0286	21.8405	22.5458	23.0327	1.9909
201	2	1	1	1	455.0043	29	1	800	1857897.252	0.0028	0.0134	0.8252	1.5311	1.9894	0
201	2	2	1	1	318.5955	56	1	800	1857897.252	0.0028	2.0135	2.8257	3.5313	3.8533	0
201	2	3	1	1	382.1956	29	1	800	1857897.252	0.0028	3.8725	4.6843	5.3902	5.7756	0
201	2	4	1	1	342.9336	29	1	800	1857897.252	0.0028	5.8022	6.6139	7.3199	7.6662	0
201	2	5	1	1	316.6258	56	0	800	1857897.252	0.0028	7.6845	8.4964	9.2025	9.5224	0
201	2	6	1	1	354.3439	56	1	800	1857897.252	0.0028	0.0242	0.836	1.5538	1.9114	0
201	2	7	1	1	436.2869	56	1	800	1857897.252	0.0028	1.9302	2.742	3.448	3.8977	0
201	2	8	1	1	406.0463	29	1	800	1857897.252	0.0028	3.9186	4.7305	5.4364	5.8462	0
201	2	9	1	1	558.0983	29	0	800	1857897.252	0.0028	5.8717	6.6842	7.3894	7.9508	0
201	2	10	1	1	377.4897	56	1	800	1857897.252	0.0028	0.0304	0.8421	1.5599	1.9429	0
201	2	11	1	1	354.3883	56	1	800	1857897.252	0.0028	1.9717	2.7834	3.4894	3.8472	0
201	2	12	1	1	320.1592	56	1	800	1857897.252	0.0028	3.8659	4.6777	5.3836	5.707	0
201	2	13	1	1	263.776	56	1	800	1857897.252	0.0028	5.7375	6.5484	7.2544	7.5215	0
201	2	14	1	1	363.721	56	1	800	1857897.252	0.0028	7.5486	8.3604	9.0663	9.4347	0
201	2	15	1	1	319.9218	29	1	800	1857897.252	0.0028	9.4545	10.2664	10.9725	11.2957	0
201	2	16	1	1	429.966	29	1	800	1857897.252	0.0028	11.3134	12.1253	12.8315	13.2646	0
201	2	17	1	1	428.2285	29	1	800	1857897.252	0.0028	13.2902	14.102	14.8079	15.2397	0
201	2	18	1	1	323.1472	56	1	800	1857897.252	0.0028	15.2667	16.0785	16.7845	17.1112	0
201	2	19	1	1	288.8715	56	1	800	1857897.252	0.0028	17.1374	17.9492	18.6552	18.948	0
201	2	20	1	1	353.2555	56	1	800	1857897.252	0.0028	18.9729	19.7847	20.4907	20.8474	0
201	2	21	1	1	379.1061	29	1	800	1857897.252	0.0028	20.8671	21.679	22.3849	22.7674	0
201	2	22	1	1	390.7149	56	1	800	1857897.252	0.0028	22.7849	23.5969	24.3028	24.6966	0
201	2	23	1	1	353.2435	56	1	800	1857897.252	0.0028	24.7262	25.538	26.244	26.6008	0
201	2	24	1	1	462.8215	56	1	800	1857897.252	0.0028	26.6205	27.7736	28.4794	28.9456	0
201	2	25	1	1	443.3823	29	1	800	1857897.252	0.0028	28.9736	29.7854	30.4914	30.9386	0
201	2	26	1	1	421.8681	56	1	800	1857897.252	0.0028	30.962	31.7739	32.4797	32.905	0
201	2	27	1	1	497.1573	29	1	800	1857897.252	0.0028	32.9268	33.7386	34.4446	34.9451	0
201	2	28	1	1	318.2915	56	1	800	1857897.252	0.0028	34.9623	35.7742	36.48	36.8017	0
201	2	29	1	1	422.0743	29	1	800	1857897.252	0.0028	36.8212	37.633	38.3389	38.7658	0
201	2	30	1	1	486.1658	56	0	800	1857897.252	0.0028	38.786	39.5979	40.3043	40.7937	0
201	3	1	1	1	363.9903	29	1	800	1857977.048	0.003	0.0091	0.821	1.5269	1.8941	0
201	3	2	1	1	401.8363	29	1	800	1857977.048	0.003	1.9151	2.7269	3.4329	3.8381	0
201	3	3	1	1	385.2052	29	1	800	1857977.048	0.003	3.8564	4.6683	5.3742	5.7634	0
201	3	4	1	1	356.6193	56	1	800	1857977.048	0.003	5.7861	6.5982	7.3037	7.6637	0
201	3	5	1	1	413.599	29	1	800	1857977.048	0.003	7.6802	8.4921	9.198	9.6148	0
201	3	6	1	1	392.9888	56	1	800	1857977.048	0.003	9.6451	10.4569	11.1629	11.5593	0
201	3	7	1	1	378.4282	56	1	800	1857977.048	0.003	11.5864	12.3982	13.1042	13.486	0
201	3	8	1	1	598.3396	56	1	800	1857977.048	0.003	13.5042	14.316	15.022	15.6243	0
201	3	9	1	1	432.0665	29	1	800	1857977.048	0.003	15.6472	16.4573	17.1633	17.5987	0
201	3	10	1	1	487.0455	29	0	800	1857977.048	0.003	17.6221	18.434	19.1399	19.6303	0
201	3	11	1	1	317.9287	56	1	800	1857977.048	0.003	0.022	0.8338	1.5515	1.873	0
201	3	12	1	1	338.8797	29	1	800	1857977.048	0.003	1.8926	2.7045	3.411	3.7532	0
201	3	1	2	1	582.6338	56	1	800	1857977.048	0.003	0.0082	0.82	1.526	2.1119	3.7622
201	3	2	2	1	586.6914	29	1	800	1857977.048	0.003	2.1378	2.9496	3.6555	4.2456	3.7622
201	3	3	2	1	465.9063	56	1	800	1857977.048	0.003	4.2673	5.0792	5.7851	6.2543	3.7622
201	3	4	2	1	463.0031	56	1	800	1857977.048	0.003	6.2792	7.0911	7.797	8.2639	3.7622
201	3	5	2	1	402.7009	29	1	800	1857977.048	0.003	8.2931	9.103	9.8089	10.215	3.7622
201	3	6	2	1	341.4987	56	1	800	1857977.048	0.003	10.2324	11.0443	11.7502	12.0952	3.7622
201	3	7	2	1	306.8108	56	1	800	1857977.048	0.003	12.115	13.2797	13.9856	14.2957	3.7622
201	3	8	2	1	631.5207	56	1	800	1857977.048	0.003	14.3268	15.1387	15.8447	16.4799	3.7622
201	3	9	2	1	509.5451	56	0	800	1857977.048	0.003	16.5036	17.3153	18.0213	18.5343	3.7622
201	3	10	2	1	451.6553	29	1	800	1857977.048	0.003	0.0259	0.8377	1.5555	2.0105	3.7622
201	3	11	2	1	603.1482	29	1	800	1857977.048	0.003	2.0378	2.8496	3.5555	4.162	3.7622
201	3	12	2	1	501.2585	29	1	800	1857977.048	0.003	4.1792	4.991	5.697	6.2015	3.7622
201	3	1	3	1	487.1731	29	1	800	1857977.048	0.003	0.0181	0.8285	1.5345	2.025	6.2199
201	3	2	3	1	420.5075	29	1	800	1857977.048	0.003	2.0522	2.864	3.5699	3.9943	6.2199
201	3	3	3	1	462.9402	29	1	800	1857977.048	0.003	4.017	4.8289	5.5348	6.001	6.2199
201	3	4	3	1	459.8572	29	1	800	1857977.048	0.003	6.0289	6.8408	7.5467	8.0098	6.2199
201	3	5	3	1	337.2334	29	1	800	1857977.048	0.003	8.029	8.841	9.5468	9.8882	6.2199
201	3	6	3	1	305.4728	56	1	800	1857977.048	0.003	9.9115	10.7234	11.4292	11.7381	6.2199
201	3	7	3	1	320.91	56	1	800	1857977.048	0.003	11.7588	12.5706	13.2765	13.6007	6.2199
201	3	8	3	1	421.6119	29	1	800	1857977.048	0.003	13.6177	14.4296	15.1354	15.5611	6.2199
201	3	9	3	1	344.1276	56	1	800	1857977.048	0.003	15.5825	16.3943	17.1003	17.4478	6.2199
201	3	10	3	1	339.4285	29	1	800	1857977.048	0.003	17.4768	18.2887	18.9946	19.3378	6.2199
201	3	11	3	1	306.9553	56	1	800	1857977.048	0.003	19.3711	20.1828	20.8889	21.1994	6.2199
201	3	12	3	1	382.6052	29	1	800	1857977.048	0.003	21.2182	22.0301	22.736	23.1219	6.2199
201	4	1	1	2	378.1574	56	1	800	1858071.159	0.0028	0.0116	0.8234	1.5294	1.9108	0
201	4	2	1	2	410.8262	29	1	800	1858071.159	0.0028	1.9294	2.7413	3.4472	3.8614	0
201	4	3	1	2	348.7038	56	1	800	1858071.159	0.0028	3.8826	4.6943	5.4003	5.7524	0
201	4	4	1	2	502.5943	56	1	800	1858071.159	0.0028	5.7767	6.5886	7.2945	7.8853	0
201	4	5	1	2	433.8662	29	1	800	1858071.159	0.0028	7.9063	8.7181	9.4241	9.8612	0
201	4	6	1	2	673.8548	29	1	800	1858071.159	0.0028	9.8829	10.6948	11.4007	12.078	0
201	4	7	1	2	436.4111	29	1	800	1858071.159	0.0028	12.1066	12.9186	13.6244	14.0644	0
201	4	8	1	2	578.6999	29	1	800	1858071.159	0.0028	14.0833	14.8951	15.6017	16.1836	0
201	4	9	1	2	299.9804	56	1	800	1858071.159	0.0028	16.2011	17.0128	17.7188	18.0223	0
201	4	10	1	2	376.0846	56	1	800	1858071.159	0.0028	18.0492	18.8601	19.566	19.9469	0
201	4	11	1	2	310.1034	56	1	800	1858071.159	0.0028	19.966	20.7779	21.4838	21.7974	0
201	4	12	1	2	355.8222	29	1	800	1858071.159	0.0028	21.8249	22.6369	23.3428	23.7022	0
201	4	13	1	2	397.9202	56	1	800	1858071.159	0.0028	23.7192	24.5311	25.2373	25.6391	0
201	4	14	1	2	425.3927	56	1	800	1858071.159	0.0028	25.6606	26.4724	27.1783	27.6071	0
201	4	15	1	2	308.9718	56	1	800	1858071.159	0.0028	27.6254	28.4373	29.1432	29.4557	0
201	4	16	1	2	332.0946	29	1	800	1858071.159	0.0028	29.4726	30.2844	30.9903	31.3256	0
201	4	17	1	2	347.1287	56	1	800	1858071.159	0.0028	31.355	32.1669	32.8728	33.2234	0
201	4	18	1	2	268.8884	56	1	800	1858071.159	0.0028	33.2493	34.0611	34.767	35.0391	0
201	4	19	1	2	362.4081	29	1	800	1858071.159	0.0028	35.0612	35.8734	36.5789	36.9562	0
201	4	20	1	2	428.8528	29	1	800	1858071.159	0.0028	36.979	37.7908	38.4968	38.929	0
201	4	21	1	2	355.2263	29	1	800	1858071.159	0.0028	38.9556	39.7675	40.4733	40.832	0
201	4	22	1	2	374.0714	56	1	800	1858071.159	0.0028	40.8499	41.6617	42.3676	42.7454	0
201	4	23	1	2	439.5264	29	1	800	1858071.159	0.0028	42.7676	43.5794	44.2854	44.7288	0
201	4	24	1	2	298.373	56	1	800	1858071.159	0.0028	44.756	45.5678	46.2738	46.5762	0
201	4	25	1	2	470.4176	56	1	800	1858071.159	0.0028	46.6032	47.4151	48.1211	48.5951	0
201	4	26	1	2	350.4623	29	0	800	1858071.159	0.0028	48.6151	49.4269	50.1329	50.487	0
201	4	27	1	2	450.6559	56	1	800	1858071.159	0.0028	0.0217	0.8336	1.5516	2.0058	0
201	4	28	1	2	371.3613	29	0	800	1858071.159	0.0028	2.0337	2.8455	3.5514	3.9263	0
201	4	29	1	2	699.0496	1	0	800	1858071.159	0.0028	0.0223	0.834	1.5517	2.2537	0
201	4	30	1	2	415.7804	56	1	800	1858071.159	0.0028	0.0277	0.8395	1.5573	1.9764	0
201	5	1	1	2	381.1202	56	1	800	1858149.553	0.0029	0.0074	0.8194	1.5253	1.9097	0
201	5	2	1	2	355.9861	56	1	800	1858149.553	0.0029	1.9374	2.7489	3.4549	3.8142	0
201	5	3	1	2	485.1073	56	1	800	1858149.553	0.0029	3.8313	4.6431	5.3491	5.8374	0
201	5	4	1	2	459.3559	29	1	800	1858149.553	0.0029	5.8668	6.6786	7.3845	7.8473	0
201	5	5	1	2	308.292	56	1	800	1858149.553	0.0029	7.8669	8.6787	9.3847	9.6961	0
201	5	6	1	2	485.6022	29	1	800	1858149.553	0.0029	9.7259	10.5377	11.2435	11.7324	0
201	5	7	1	2	323.8363	56	1	800	1858149.553	0.0029	11.7613	12.5731	13.2791	13.6063	0
201	5	8	1	2	349.226	29	1	800	1858149.553	0.0029	13.632	14.4439	15.1498	15.5025	0
201	5	9	1	2	456.4261	29	1	800	1858149.553	0.0029	15.5262	16.3386	17.0441	17.5038	0
201	5	10	1	2	399.9837	29	1	800	1858149.553	0.0029	17.5264	18.3383	19.0442	19.4475	0
201	5	11	1	2	463.9784	29	1	800	1858149.553	0.0029	19.4677	20.2796	20.9856	21.4532	0
201	5	12	1	2	420.7322	29	1	800	1858149.553	0.0029	21.4796	22.2914	22.9974	23.4228	0
201	6	1	1	2	438.8128	56	1	800	1858185.449	0.0029	0.0139	0.8259	1.5317	1.9839	0
201	6	2	1	2	341.9136	29	1	800	1858185.449	0.0029	2.0024	2.8142	3.5202	3.8655	0
201	6	3	1	2	330.1792	56	1	800	1858185.449	0.0029	3.8848	4.6967	5.4026	5.7363	0
201	6	4	1	2	324.9462	56	1	800	1858185.449	0.0029	5.7555	6.5674	7.2734	7.6017	0
201	6	5	1	2	397.2046	56	1	800	1858185.449	0.0029	7.6264	8.4381	9.144	9.5446	0
201	6	6	1	2	511.1667	29	1	800	1858185.449	0.0029	9.5676	10.3796	11.0854	11.6	0
201	6	7	1	2	407.082	56	1	800	1858185.449	0.0029	11.6266	12.4384	13.1444	13.5548	0
201	6	8	1	2	432.9584	56	1	800	1858185.449	0.0029	13.5798	14.3915	15.0974	15.5343	0
201	6	9	1	2	347.0065	29	1	800	1858185.449	0.0029	15.5562	16.3682	17.0741	17.4244	0
201	6	10	1	2	333.3228	56	1	800	1858185.449	0.0029	17.4505	18.2623	18.9684	19.3051	0
201	6	11	1	2	400.5835	29	1	800	1858185.449	0.0029	19.3334	20.1448	20.8508	21.2547	0
201	6	12	1	2	327.6026	56	1	800	1858185.449	0.0029	21.2743	22.0863	22.792	23.1256	0
201	6	13	1	2	404.4064	29	1	800	1858185.449	0.0029	23.1451	23.9569	24.6629	25.0706	0
201	6	14	1	2	301.6616	56	1	800	1858185.449	0.0029	25.0981	25.9099	26.6159	26.9209	0
201	6	15	1	2	348.0231	29	1	800	1858185.449	0.0029	26.9453	27.7572	28.4881	28.8405	0
201	6	16	1	2	287.6087	56	1	800	1858185.449	0.0029	28.8632	29.6749	30.3809	30.6716	0
201	6	17	1	2	306.1436	56	1	800	1858185.449	0.0029	30.6986	31.5104	32.2164	32.5259	0
201	6	18	1	2	404.5823	29	1	800	1858185.449	0.0029	32.5457	33.3576	34.0636	34.4716	0
201	6	19	1	2	424.9472	29	1	800	1858185.449	0.0029	34.4988	35.3107	36.0166	36.4447	0
201	6	20	1	2	407.6897	29	1	800	1858185.449	0.0029	36.4638	37.2755	37.9814	38.3924	0
201	6	21	1	2	494.3259	29	1	800	1858185.449	0.0029	38.4168	39.229	39.9347	40.4322	0
201	6	22	1	2	385.4372	29	1	800	1858185.449	0.0029	40.4522	41.2643	41.97	42.3594	0
201	6	23	1	2	351.8825	56	1	800	1858185.449	0.0029	42.3817	43.1937	43.8995	44.2548	0
201	6	24	1	2	515.8016	56	1	800	1858185.449	0.0029	44.276	45.0878	45.7937	46.3129	0
201	6	25	1	2	423.2429	56	1	800	1858185.449	0.0029	46.335	47.1468	47.8528	48.2794	0
201	6	26	1	2	378.4911	29	1	800	1858185.449	0.0029	48.2998	49.1117	49.8176	50.1995	0
201	6	27	1	2	432.5133	56	1	800	1858185.449	0.0029	50.2176	51.0295	51.7471	52.1833	0
201	6	28	1	2	351.715	56	1	800	1858185.449	0.0029	52.206	53.0179	53.7238	54.0793	0
201	6	29	1	2	362.0159	29	1	800	1858185.449	0.0029	54.1003	54.912	55.6182	55.9842	0
201	6	30	1	2	424.1989	29	0	800	1858185.449	0.0029	56.0062	56.8181	57.5242	57.9517	0
201	7	1	1	3	459.5581	56	1	800	1858261.902	0.003	0.0167	0.8287	1.5345	1.9973	0
201	7	2	1	3	310.0682	56	1	800	1858261.902	0.003	2.0168	2.8286	3.5346	3.8483	0
201	7	3	1	3	490.2473	56	1	800	1858261.902	0.003	3.8765	4.6877	5.3936	5.8882	0
201	7	4	1	3	342.411	56	1	800	1858261.902	0.003	5.9112	6.7231	7.4289	7.7746	0
201	7	5	1	3	303.9341	56	1	800	1858261.902	0.003	7.7999	8.6173	9.3233	9.6306	0
201	7	6	1	3	367.7342	56	1	800	1858261.902	0.003	9.6527	10.4645	11.1706	11.5416	0
201	7	7	1	3	449.8778	56	1	800	1858261.902	0.003	11.5705	12.3823	13.0883	13.5414	0
201	7	8	1	3	479.8629	29	1	800	1858261.902	0.003	13.5588	14.3707	15.0766	15.5599	0
201	7	9	1	3	486.656	29	1	800	1858261.902	0.003	15.5826	16.3944	17.1004	17.5904	0
201	7	10	1	3	699.6663	1	0	800	1858261.902	0.003	17.6179	18.4298	19.136	19.8386	0
201	7	11	1	3	463.8855	29	1	800	1858261.902	0.003	0.0223	0.8341	1.5518	2.0189	0
201	7	12	1	3	352.9177	56	1	800	1858261.902	0.003	2.046	2.8578	3.5639	3.9202	0
201	7	1	2	3	369.417	56	1	800	1858261.902	0.003	0.0158	0.8276	1.5336	1.9063	3.9296
201	7	2	2	3	308.1158	56	1	800	1858261.902	0.003	1.9453	2.7571	3.4631	3.7747	3.9296
201	7	3	2	3	351.7097	56	0	800	1858261.902	0.003	3.7926	4.6044	5.3103	5.6667	3.9296
201	7	4	2	3	488.3034	29	1	800	1858261.902	0.003	0.0282	0.8401	1.5577	2.0494	3.9296
201	7	5	2	3	676.4887	29	1	800	1858261.902	0.003	2.0754	2.8873	3.5931	4.2729	3.9296
201	7	6	2	3	419.1055	29	1	800	1858261.902	0.003	4.2991	5.1109	5.8169	6.2502	3.9296
201	7	7	2	3	453.0027	56	1	800	1858261.902	0.003	6.2758	7.0875	7.7935	8.25	3.9296
201	7	8	2	3	338.4028	29	1	800	1858261.902	0.003	8.2759	9.0877	9.7937	10.1353	3.9296
201	7	9	2	3	491.2835	56	1	800	1858261.902	0.003	10.1584	10.9706	11.6762	12.1708	3.9296
201	7	10	2	3	318.5637	29	1	800	1858261.902	0.003	12.1938	13.0057	13.7119	14.0339	3.9296
201	7	11	2	3	267.4558	56	1	800	1858261.902	0.003	14.0528	14.8646	15.5705	15.8424	3.9296
201	7	12	2	3	430.9448	29	1	800	1858261.902	0.003	15.8647	16.6766	17.3824	17.8166	3.9296
201	7	1	3	3	330.1303	56	1	800	1858261.902	0.003	0.0109	0.8227	1.5285	1.862	17.8255
201	7	2	3	3	332.8746	29	1	800	1858261.902	0.003	1.8815	2.6933	3.3992	3.7352	17.8255
201	7	3	3	3	347.2914	29	0	800	1858261.902	0.003	3.7521	4.5641	5.2699	5.6206	17.8255
201	7	4	3	3	417.3765	29	1	800	1858261.902	0.003	0.0228	0.8346	1.5523	1.9729	17.8255
201	7	5	3	3	684.2524	56	1	800	1858261.902	0.003	1.9993	2.8112	3.5171	4.2046	17.8255
201	7	6	3	3	438.3546	29	1	800	1858261.902	0.003	4.223	5.035	5.7407	6.1822	17.8255
201	7	7	3	3	329.8904	29	1	800	1858261.902	0.003	6.2114	7.0232	7.7292	8.0622	17.8255
201	7	8	3	3	409.3096	56	1	800	1858261.902	0.003	8.0822	8.8939	9.5999	10.0134	17.8255
201	7	9	3	3	464.1481	29	1	800	1858261.902	0.003	10.0353	10.8471	11.553	12.0204	17.8255
201	7	10	3	3	358.0559	29	1	800	1858261.902	0.003	12.0471	12.859	13.5649	13.9264	17.8255
201	7	11	3	3	362.5551	29	1	800	1858261.902	0.003	13.9531	14.765	15.471	15.8369	17.8255
201	7	12	3	3	480.9814	29	1	800	1858261.902	0.003	15.8592	16.671	17.377	17.8622	17.8255
201	7	1	4	3	399.8378	29	1	800	1858261.902	0.003	0.017	0.8288	1.5347	1.9378	17.8711
201	7	2	4	3	331.6317	56	1	800	1858261.902	0.003	1.9582	2.7701	3.4761	3.8112	17.8711
201	7	3	4	3	609.4987	29	1	800	1858261.902	0.003	3.829	4.6408	5.3468	5.9604	17.8711
201	7	4	4	3	336.4079	56	1	800	1858261.902	0.003	5.9821	6.7939	7.4999	7.8395	17.8711
201	7	5	4	3	342.098	29	1	800	1858261.902	0.003	7.8646	8.6765	9.3823	9.7279	17.8711
201	7	6	4	3	436.8993	29	1	800	1858261.902	0.003	9.747	10.5589	11.2648	11.7055	17.8711
201	7	7	4	3	362.7181	56	1	800	1858261.902	0.003	11.7236	12.5357	13.2414	13.6082	17.8711
201	7	8	4	3	464.409	56	1	800	1858261.902	0.003	13.6297	14.4415	15.1475	15.6237	17.8711
201	7	9	4	3	501.7332	56	1	800	1858261.902	0.003	15.6415	16.4534	17.1593	17.6644	17.8711
201	7	10	4	3	391.4619	56	1	800	1858261.902	0.003	17.6888	18.5008	19.2065	19.6014	17.8711
201	7	11	4	3	418.886	56	1	800	1858261.902	0.003	19.6301	20.442	21.1479	21.5703	17.8711
201	7	12	4	3	389.8059	56	1	800	1858261.902	0.003	21.595	22.4068	23.1128	23.5058	17.8711
201	8	1	1	3	365.531	29	1	800	1858382.075	0.003	0.0098	0.8216	1.5275	1.8964	0
201	8	2	1	3	391.6012	29	1	800	1858382.075	0.003	1.9276	2.7393	3.4455	3.8405	0
201	8	3	1	3	547.8691	29	1	800	1858382.075	0.003	3.8571	4.6689	5.3749	5.926	0
201	8	4	1	3	510.9399	29	1	800	1858382.075	0.003	5.9514	6.7632	7.4691	7.9832	0
201	8	5	1	3	331.7366	56	1	800	1858382.075	0.003	8.0104	8.8221	9.5282	9.8636	0
201	8	6	1	3	328.9646	56	1	800	1858382.075	0.003	9.8933	10.7048	11.4107	11.7431	0
201	8	7	1	3	386.2496	29	1	800	1858382.075	0.003	11.7636	12.5754	13.2813	13.671	0
201	8	8	1	3	439.6993	56	1	800	1858382.075	0.003	13.6931	14.505	15.2109	15.654	0
201	8	9	1	3	452.1677	56	1	800	1858382.075	0.003	15.6814	16.4933	17.1992	17.6549	0
201	8	10	1	3	516.5036	29	1	800	1858382.075	0.003	17.6816	18.4934	19.1994	19.7196	0
201	8	11	1	3	319.9361	56	1	800	1858382.075	0.003	19.7406	20.5525	21.2584	21.5817	0
201	8	12	1	3	509.3643	29	1	800	1858382.075	0.003	21.5997	22.4114	23.1173	23.6301	0
201	8	13	1	3	501.8585	29	1	800	1858382.075	0.003	23.6467	24.4586	25.1644	25.6694	0
201	8	14	1	3	353.437	29	1	800	1858382.075	0.003	25.694	26.5058	27.2118	27.5686	0
201	8	15	1	3	465.4185	56	1	800	1858382.075	0.003	27.5882	28.4002	29.106	29.5749	0
201	8	16	1	3	428.8141	29	1	800	1858382.075	0.003	29.6003	30.412	31.1182	31.5503	0
201	8	17	1	3	377.3129	56	1	800	1858382.075	0.003	31.5886	32.4003	33.1063	33.4871	0
201	8	18	1	3	325.8831	56	1	800	1858382.075	0.003	33.5063	34.3211	35.0359	35.3651	0
201	8	19	1	3	362.204	29	1	800	1858382.075	0.003	35.3888	36.2006	36.9065	37.272	0
201	8	20	1	3	333.5573	56	1	800	1858382.075	0.003	37.2948	38.1067	38.8126	39.1497	0
201	8	21	1	3	501.2463	29	1	800	1858382.075	0.003	39.1773	39.9891	40.6951	41.1997	0
201	8	22	1	3	492.0997	56	1	800	1858382.075	0.003	41.2245	42.0364	42.7423	43.2377	0
201	8	23	1	3	429.5327	29	1	800	1858382.075	0.003	43.26	44.0718	44.7777	45.2107	0
201	8	24	1	3	361.0352	56	1	800	1858382.075	0.003	45.2379	46.0484	46.7543	47.1186	0
201	8	25	1	3	394.7563	29	1	800	1858382.075	0.003	47.1426	47.9557	48.6721	49.07	0
201	8	26	1	3	460.0275	56	1	800	1858382.075	0.003	49.0956	49.9077	50.6147	51.0779	0
201	8	27	1	3	381.5774	29	1	800	1858382.075	0.003	51.0958	51.9077	52.6136	52.9986	0
201	8	28	1	3	436.6532	29	1	800	1858382.075	0.003	53.0254	53.8372	54.5431	54.9832	0
201	8	29	1	3	355.0864	56	1	800	1858382.075	0.003	55.0019	55.8138	56.5197	56.8845	0
201	8	30	1	3	354.5323	29	1	800	1858382.075	0.003	56.9079	57.7199	58.4258	58.7837	0
201	9	1	1	3	592.7161	56	1	800	1858450.61	0.003	0.0081	0.8199	1.5259	2.1218	0
201	9	2	1	3	322.0783	56	1	800	1858450.61	0.003	2.1495	2.9613	3.6672	3.9927	0
201	9	3	1	3	362.395	29	1	800	1858450.61	0.003	4.0202	4.832	5.5379	5.9037	0
201	9	4	1	3	338.0378	29	1	800	1858450.61	0.003	5.9262	6.738	7.4444	7.7863	0
201	9	5	1	3	332.759	56	1	800	1858450.61	0.003	7.8087	8.6205	9.3265	9.6626	0
201	9	6	1	3	370.7132	56	1	800	1858450.61	0.003	9.6912	10.503	11.2089	11.5827	0
201	9	7	1	3	426.3115	29	1	800	1858450.61	0.003	11.609	12.4207	13.1268	13.5565	0
201	9	8	1	3	441.8299	56	1	800	1858450.61	0.003	13.5738	14.3856	15.0916	15.537	0
201	9	9	1	3	366.077	56	1	800	1858450.61	0.003	15.5622	16.3746	17.0799	17.4494	0
201	9	10	1	3	329.2444	56	1	800	1858450.61	0.003	17.4682	18.2801	18.986	19.3272	0
201	9	11	1	3	377.5506	29	1	800	1858450.61	0.003	19.3508	20.1625	20.8685	21.2494	0
201	9	12	1	3	323.1831	56	1	800	1858450.61	0.003	21.2685	22.0803	22.7862	23.1125	0
201	10	1	1	4	451.9698	29	1	800	1858488.118	0.0028	0.0175	0.8293	1.5352	1.9906	0
201	10	2	1	4	382.1705	56	1	800	1858488.118	0.0028	2.0176	2.8295	3.5353	3.9209	0
201	10	3	1	4	345.9328	29	1	800	1858488.118	0.0028	3.9471	4.7589	5.4649	5.8203	0
201	10	4	1	4	396.4153	29	1	800	1858488.118	0.0028	5.8414	6.6532	7.3592	7.7589	0
201	10	5	1	4	342.9249	29	1	800	1858488.118	0.0028	7.7827	8.5946	9.3005	9.6468	0
201	10	6	1	4	365.8	56	1	800	1858488.118	0.0028	9.6652	10.477	11.1829	11.5519	0
201	10	7	1	4	403.3611	29	1	800	1858488.118	0.0028	11.5714	12.383	13.089	13.4958	0
201	10	8	1	4	326.6121	29	1	800	1858488.118	0.0028	13.5125	14.3248	15.0303	15.3604	0
201	10	9	1	4	368.9017	29	1	800	1858488.118	0.0028	15.3832	16.1951	16.901	17.2734	0
201	10	10	1	4	311.7407	56	1	800	1858488.118	0.0028	17.3011	18.1129	18.8189	19.1344	0
201	10	11	1	4	398.2912	56	1	800	1858488.118	0.0028	19.1605	19.972	20.6778	21.0794	0
201	10	12	1	4	395.8214	29	1	800	1858488.118	0.0028	21.1013	21.9132	22.6192	23.0183	0
201	10	13	1	4	378.7256	56	1	800	1858488.118	0.0028	23.0428	23.8544	24.5604	24.9427	0
201	10	14	1	4	390.5146	29	1	800	1858488.118	0.0028	24.9604	25.7723	26.4782	26.8721	0
201	10	15	1	4	319.3486	56	1	800	1858488.118	0.0028	26.8899	27.7018	28.4078	28.7335	0
201	10	16	1	4	365.0527	56	1	800	1858488.118	0.0028	28.7608	29.5725	30.2785	30.6469	0
201	10	17	1	4	394.8327	29	1	800	1858488.118	0.0028	30.6667	31.4786	32.1845	32.5829	0
201	10	18	1	4	406.6058	29	1	800	1858488.118	0.0028	32.609	33.4198	34.1257	34.536	0
201	10	19	1	4	470.8135	29	1	800	1858488.118	0.0028	34.5612	35.373	36.0789	36.553	0
201	10	20	1	4	321.6391	56	1	800	1858488.118	0.0028	36.5774	37.3848	38.0908	38.4157	0
201	10	21	1	4	348.2334	56	1	800	1858488.118	0.0028	38.4439	39.2556	39.9615	40.3131	0
201	10	22	1	4	349.039	56	1	800	1858488.118	0.0028	40.338	41.1498	41.8558	42.2083	0
201	10	23	1	4	477.5275	56	1	800	1858488.118	0.0028	42.2322	43.0441	43.7501	44.2307	0
201	10	24	1	4	317.8601	56	1	800	1858488.118	0.0028	44.2559	45.0678	45.7736	46.0948	0
201	10	25	1	4	516.171	29	1	800	1858488.118	0.0028	46.1149	46.9268	47.6333	48.1528	0
201	10	26	1	4	699.9007	1	0	800	1858488.118	0.0028	48.1741	48.9857	49.6916	50.3944	0
201	10	27	1	4	395.5907	29	1	800	1858488.118	0.0028	0.0245	0.8367	1.5541	1.953	0
201	10	28	1	4	468.7748	56	1	800	1858488.118	0.0028	1.9776	2.7895	3.4954	3.9676	0
201	10	29	1	4	360.9431	29	1	800	1858488.118	0.0028	3.9895	4.8014	5.5073	5.8722	0
201	10	30	1	4	318.3222	56	1	800	1858488.118	0.0028	5.8956	6.7074	7.4133	7.7347	0
201	11	1	1	4	444.3086	56	1	800	1858573.336	0.0028	0.012	0.8238	1.5297	1.9777	0
201	11	2	1	4	349.8711	29	1	800	1858573.336	0.0028	2.0005	2.8122	3.5182	3.8726	0
201	11	3	1	4	398.455	29	1	800	1858573.336	0.0028	3.8946	4.7066	5.4124	5.8144	0
201	11	4	1	4	379.4536	29	1	800	1858573.336	0.0028	5.836	6.6478	7.3536	7.7363	0
201	11	5	1	4	413.7748	29	1	800	1858573.336	0.0028	7.7538	8.5655	9.2715	9.6886	0
201	11	6	1	4	499.2784	29	1	800	1858573.336	0.0028	9.7068	10.5186	11.2246	11.7273	0
201	11	7	1	4	297.7613	56	1	800	1858573.336	0.0028	11.7544	12.5658	13.2718	13.573	0
201	11	8	1	4	460.5169	29	1	800	1858573.336	0.0028	13.6012	14.413	15.119	15.5857	0
201	11	9	1	4	478.4393	29	1	800	1858573.336	0.0028	15.6131	16.4249	17.1311	17.6133	0
201	11	10	1	4	369.8944	29	1	800	1858573.336	0.0028	17.6368	18.449	19.1546	19.5277	0
201	11	11	1	4	339.4266	29	1	800	1858573.336	0.0028	19.5546	20.3664	21.0723	21.4163	0
201	11	12	1	4	344.272	29	1	800	1858573.336	0.0028	21.437	22.2489	22.9549	23.3025	0
201	12	1	1	4	307.3026	56	1	800	1858610.88	0.0028	0.0208	0.8305	1.5364	1.847	0
201	12	2	1	4	484.156	56	1	800	1858610.88	0.0028	1.8657	2.6776	3.3835	3.8711	0
201	12	3	1	4	455.5706	29	1	800	1858610.88	0.0028	3.8894	4.7013	5.4071	5.8664	0
201	12	4	1	4	385.0751	29	1	800	1858610.88	0.0028	5.8906	6.7014	7.4075	7.8227	0
201	12	5	1	4	432.4742	56	1	800	1858610.88	0.0028	7.9817	8.7957	9.5017	9.9375	0
201	12	6	1	4	327.8356	56	1	800	1858610.88	0.0028	9.9604	10.7723	11.4783	11.81	0
201	12	7	1	4	344.2079	29	1	800	1858610.88	0.0028	11.8315	12.643	13.3489	13.6965	0
201	12	8	1	4	348.0364	29	1	800	1858610.88	0.0028	13.7254	14.6079	15.3138	15.6652	0
201	12	9	1	4	309.3229	56	1	800	1858610.88	0.0028	15.6903	16.5022	17.208	17.5207	0
201	12	10	1	4	372.4081	29	1	800	1858610.88	0.0028	17.5845	18.3964	19.1024	19.4784	0
201	12	11	1	4	321.0908	29	1	800	1858610.88	0.0028	19.5024	20.3141	21.0201	21.3446	0
201	12	12	1	4	309.6234	56	1	800	1858610.88	0.0028	21.3613	22.1731	22.8791	23.1919	0
201	12	13	1	4	313.4086	56	1	800	1858610.88	0.0028	23.2202	24.0321	24.7381	25.0648	0
201	12	14	1	4	348.8479	29	1	800	1858610.88	0.0028	25.091	25.9028	26.6088	26.961	0
201	12	15	1	4	359.3431	29	1	800	1858610.88	0.0028	26.9854	27.7971	28.503	28.8656	0
201	12	16	1	4	444.0964	56	0	800	1858610.88	0.0028	28.8912	29.7031	30.4094	30.8581	0
201	12	17	1	4	408.6198	29	1	800	1858610.88	0.0028	0.026	0.8378	1.5556	1.9675	0
201	12	18	1	4	415.4297	29	1	800	1858610.88	0.0028	1.9914	2.8026	3.5086	3.9274	0
201	12	19	1	4	346.4343	29	1	800	1858610.88	0.0028	3.9557	4.7675	5.4735	5.8233	0
201	12	20	1	4	413.0647	29	1	800	1858610.88	0.0028	5.8499	6.6617	7.3677	7.7841	0
201	12	21	1	4	355.2515	29	1	800	1858610.88	0.0028	7.803	8.6151	9.3208	9.6794	0
201	12	22	1	4	315.6572	29	1	800	1858610.88	0.0028	9.7091	10.5208	11.2268	11.5459	0
201	12	23	1	4	310.1989	29	1	800	1858610.88	0.0028	11.5679	12.3799	13.0857	13.3991	0
201	12	24	1	4	277.4521	56	1	800	1858610.88	0.0028	13.4269	14.2389	14.9447	15.2255	0
201	12	25	1	4	333.8635	29	1	800	1858610.88	0.0028	15.2506	16.0624	16.7684	17.1057	0
201	12	26	1	4	370.5877	29	0	800	1858610.88	0.0028	17.1331	17.9449	18.6509	19.0261	0
201	12	27	1	4	384.0777	29	1	800	1858610.88	0.0028	0.0217	0.8336	1.5513	1.9388	0
201	12	28	1	4	436.0763	29	1	800	1858610.88	0.0028	1.9631	2.7749	3.481	3.9204	0
201	12	29	1	4	426.6138	29	1	800	1858610.88	0.0028	3.9397	4.7515	5.4575	5.8875	0
201	12	30	1	4	408.5787	56	1	800	1858610.88	0.0028	5.9163	6.7281	7.4341	7.846	0
201	13	1	1	5	346.9891	29	0	800	1858714.064	0.0028	0.0118	0.8236	1.5295	1.8803	0
201	13	2	1	5	432.5711	29	1	800	1858714.064	0.0028	0.0315	0.8433	1.561	1.9969	0
201	13	3	1	5	584.3939	29	0	800	1858714.064	0.0028	2.0199	2.8319	3.5377	4.1261	0
201	13	4	1	5	537.5163	56	1	800	1858714.064	0.0028	0.0262	0.838	1.5557	2.0966	0
201	13	5	1	5	344.4082	56	1	800	1858714.064	0.0028	2.1204	2.9322	3.6382	3.986	0
201	13	6	1	5	485.5334	56	1	800	1858714.064	0.0028	4.0028	4.8147	5.5207	6.0096	0
201	13	7	1	5	389.2391	29	1	800	1858714.064	0.0028	6.0266	6.8385	7.5444	7.937	0
201	13	8	1	5	316.2178	56	1	800	1858714.064	0.0028	7.9562	8.768	9.4738	9.7934	0
201	13	9	1	5	425.2454	29	1	800	1858714.064	0.0028	9.8151	10.6269	11.3328	11.7618	0
201	13	10	1	5	356.6917	56	1	800	1858714.064	0.0028	11.78	12.5918	13.2978	13.6578	0
201	13	11	1	5	360.8432	29	1	800	1858714.064	0.0028	13.6861	14.4979	15.2038	15.5703	0
201	13	12	1	5	368.6212	56	1	800	1858714.064	0.0028	15.592	16.4039	17.1098	17.4823	0
201	13	1	2	5	350.1276	56	1	800	1858714.064	0.0028	0.0194	0.8313	1.5372	1.8919	17.4913
201	13	2	2	5	586.8814	29	1	800	1858714.064	0.0028	1.9137	2.7255	3.4315	4.0224	17.4913
201	13	3	2	5	356.3517	56	1	800	1858714.064	0.0028	4.0433	4.855	5.561	5.9206	17.4913
201	13	4	2	5	364.271	29	1	800	1858714.064	0.0028	5.9492	6.7611	7.4671	7.8349	17.4913
201	13	5	2	5	344.1947	56	1	800	1858714.064	0.0028	7.8553	8.6672	9.373	9.7204	17.4913
201	13	6	2	5	492.2067	29	1	800	1858714.064	0.0028	9.7495	10.5614	11.268	11.7647	17.4913
201	13	7	2	5	383.2248	56	1	800	1858714.064	0.0028	11.7852	12.597	13.3028	13.6893	17.4913
201	13	8	2	5	484.2324	56	1	800	1858714.064	0.0028	13.7145	14.5264	15.2323	15.7285	17.4913
201	13	9	2	5	369.8364	29	1	800	1858714.064	0.0028	15.7499	16.5618	17.2678	17.641	17.4913
201	13	10	2	5	346.9283	29	1	800	1858714.064	0.0028	17.6679	18.4796	19.1856	19.5358	17.4913
201	13	11	2	5	414.9719	29	1	800	1858714.064	0.0028	19.5623	20.3738	21.0797	21.4979	17.4913
201	13	12	2	5	473.7542	29	1	800	1858714.064	0.0028	21.5268	22.3387	23.0447	23.5219	17.4913
201	14	1	1	5	351.8105	29	1	800	1858782.34	0.0031	0.01	0.8217	1.5276	1.8838	0
201	14	2	1	5	455.4187	29	1	800	1858782.34	0.0031	1.904	2.7159	3.4218	3.881	0
201	14	3	1	5	353.0798	29	1	800	1858782.34	0.0031	3.9042	4.7161	5.422	5.779	0
201	14	4	1	5	424.8328	56	1	800	1858782.34	0.0031	5.7984	6.6103	7.3162	7.7444	0
201	14	5	1	5	348.7733	56	1	800	1858782.34	0.0031	7.7633	8.5751	9.2811	9.6333	0
201	14	6	1	5	453.6317	56	1	800	1858782.34	0.0031	9.6575	10.4694	11.1753	11.6324	0
201	14	7	1	5	365.4296	29	1	800	1858782.34	0.0031	11.6577	12.4696	13.1755	13.5443	0
201	14	8	1	5	476.6134	29	1	800	1858782.34	0.0031	13.5639	14.3756	15.0815	15.5628	0
201	14	9	1	5	396.3702	56	1	800	1858782.34	0.0031	15.5875	16.3993	17.1052	17.5049	0
201	14	10	1	5	445.8014	56	1	800	1858782.34	0.0031	17.5288	18.3409	19.0465	19.4956	0
201	14	11	1	5	379.0598	29	1	800	1858782.34	0.0031	19.5172	20.3296	21.0349	21.4172	0
201	14	12	1	5	448.9458	56	1	800	1858782.34	0.0031	21.4467	22.2585	22.9645	23.4169	0
201	14	13	1	5	354.4099	29	1	800	1858782.34	0.0031	23.435	24.2469	24.9529	25.3106	0
201	14	14	1	5	396.4254	29	1	800	1858782.34	0.0031	25.3293	26.1411	26.8471	27.2529	0
201	14	15	1	5	371.1691	29	1	800	1858782.34	0.0031	27.2826	28.0942	28.8002	29.1749	0
201	14	16	1	5	422.2914	29	1	800	1858782.34	0.0031	29.2002	30.012	30.718	31.1437	0
201	14	17	1	5	337.6425	56	1	800	1858782.34	0.0031	31.1651	31.9768	32.6827	33.0243	0
201	14	18	1	5	461.6945	29	1	800	1858782.34	0.0031	33.0476	33.8594	34.5653	35.0304	0
201	14	19	1	5	384.0353	29	1	800	1858782.34	0.0031	35.0477	35.8595	36.5655	36.9528	0
201	14	20	1	5	516.3217	56	1	800	1858782.34	0.0031	36.9772	37.7891	38.495	39.0152	0
201	14	21	1	5	347.4324	29	1	800	1858782.34	0.0031	39.0362	39.8487	40.5539	40.9046	0
201	14	22	1	5	403.8435	56	1	800	1858782.34	0.0031	40.9305	41.7423	42.4483	42.8555	0
201	14	23	1	5	459.8906	29	0	800	1858782.34	0.0031	42.8836	43.6954	44.4014	44.8646	0
201	14	24	1	5	470.915	29	0	800	1858782.34	0.0031	0.0235	0.8353	1.553	2.0273	0
201	14	25	1	5	485.0963	29	1	800	1858782.34	0.0031	0.0249	0.8367	1.5544	2.043	0
201	14	26	1	5	358.7035	56	1	800	1858782.34	0.0031	2.0604	2.8723	3.5781	3.9403	0
201	14	27	1	5	332.3016	56	1	800	1858782.34	0.0031	3.9664	4.7782	5.4841	5.8197	0
201	14	28	1	5	333.7631	56	1	800	1858782.34	0.0031	5.8371	6.6489	7.3549	7.6919	0
201	14	29	1	5	306.2516	29	1	800	1858782.34	0.0031	7.7196	8.5315	9.2375	9.5469	0
201	14	30	1	5	411.7392	29	1	800	1858782.34	0.0031	9.5668	10.3786	11.0846	11.4995	0
201	15	1	1	5	420.4854	56	1	800	1858863.04	0.0028	0.0114	0.8232	1.5292	1.9533	0
201	15	2	1	5	290.7233	56	1	800	1858863.04	0.0028	1.9763	2.788	3.494	3.7881	0
201	15	3	1	5	328.1126	56	1	800	1858863.04	0.0028	3.8117	4.6235	5.3294	5.6616	0
201	15	4	1	5	320.4666	56	1	800	1858863.04	0.0028	5.6824	6.4942	7.2002	7.5253	0
201	15	5	1	5	433.9868	29	1	800	1858863.04	0.0028	7.5532	8.365	9.0709	9.509	0
201	15	6	1	5	426.939	29	1	800	1858863.04	0.0028	9.5297	10.3416	11.0475	11.4777	0
201	15	7	1	5	389.6723	29	1	800	1858863.04	0.0028	11.4946	12.3064	13.0124	13.4055	0
201	15	8	1	5	348.027	56	1	800	1858863.04	0.0028	13.4242	14.236	14.9425	15.2938	0
201	15	9	1	5	348.7918	56	1	800	1858863.04	0.0028	15.3188	16.1302	16.8362	17.1884	0
201	15	10	1	5	366.8195	29	1	800	1858863.04	0.0028	17.2126	18.0245	18.7304	19.1007	0
201	15	11	1	5	317.9972	29	1	800	1858863.04	0.0028	19.1187	19.9305	20.6365	20.9578	0
201	15	12	1	5	554.6957	29	1	800	1858863.04	0.0028	20.9777	21.7895	22.4954	23.0533	0
201	16	1	1	6	395.7198	29	1	800	1858899.975	0.0031	0.0184	0.8303	1.5361	1.9351	0
201	16	2	1	6	349.9203	56	1	800	1858899.975	0.0031	1.9596	2.7715	3.4775	3.8312	0
201	16	3	1	6	390.8479	56	1	800	1858899.975	0.0031	3.8539	4.6658	5.3717	5.7659	0
201	16	4	1	6	459.444	56	1	800	1858899.975	0.0031	5.7834	6.5953	7.3013	7.7642	0
201	16	5	1	6	356.5707	29	1	800	1858899.975	0.0031	7.7836	8.5955	9.3013	9.6611	0
201	16	6	1	6	349.4785	56	1	800	1858899.975	0.0031	9.7014	10.5133	11.2192	11.572	0
201	16	7	1	6	385.176	29	0	800	1858899.975	0.0031	11.5957	12.4075	13.1134	13.5031	0
201	16	8	1	6	303.0167	56	1	800	1858899.975	0.0031	0.0251	0.8369	1.5546	1.8614	0
201	16	9	1	6	344.0774	56	1	800	1858899.975	0.0031	1.8841	2.6959	3.4032	3.7509	0
201	16	10	1	6	355.433	29	1	800	1858899.975	0.0031	3.7783	4.5902	5.2967	5.6553	0
201	16	11	1	6	450.205	29	1	800	1858899.975	0.0031	5.6847	6.4962	7.2023	7.6566	0
201	16	12	1	6	295.8175	56	1	800	1858899.975	0.0031	7.6845	8.4964	9.2023	9.5034	0
201	16	13	1	6	449.8239	56	1	800	1858899.975	0.0031	9.5317	10.3435	11.0495	11.5027	0
201	16	14	1	6	332.2479	56	1	800	1858899.975	0.0031	11.52	12.332	13.0378	13.3734	0
201	16	15	1	6	325.2148	56	1	800	1858899.975	0.0031	13.4026	14.2145	14.9204	15.2511	0
201	16	16	1	6	275.7086	56	1	800	1858899.975	0.0031	15.2734	16.0851	16.791	17.0704	0
201	16	17	1	6	348.7029	56	1	800	1858899.975	0.0031	17.097	17.9088	18.6148	18.9669	0
201	16	18	1	6	410.1221	56	1	800	1858899.975	0.0031	18.9912	19.803	20.509	20.9255	0
201	16	19	1	6	398.1681	56	1	800	1858899.975	0.0031	20.9445	21.7561	22.4621	22.8637	0
201	16	20	1	6	320.1721	56	1	800	1858899.975	0.0031	22.8856	23.6975	24.4034	24.7268	0
201	16	21	1	6	458.7091	29	1	800	1858899.975	0.0031	24.7566	25.5682	26.2743	26.7378	0
201	16	22	1	6	480.9598	29	1	800	1858899.975	0.0031	26.7565	27.5682	28.2742	28.759	0
201	16	23	1	6	289.4419	56	1	800	1858899.975	0.0031	28.7802	29.5921	30.2979	30.5907	0
201	16	24	1	6	350.5836	29	1	800	1858899.975	0.0031	30.6156	31.4274	32.1333	32.4882	0
201	16	25	1	6	358.7668	29	1	800	1858899.975	0.0031	32.5099	33.3217	34.0277	34.3899	0
201	16	26	1	6	396.8125	29	1	800	1858899.975	0.0031	34.4159	35.2277	35.9337	36.3338	0
201	16	27	1	6	401.4307	56	1	800	1858899.975	0.0031	36.3572	37.1691	37.875	38.2798	0
201	16	28	1	6	357.7311	29	0	800	1858899.975	0.0031	38.2985	39.1103	39.8163	40.1774	0
201	16	29	1	6	411.1002	56	0	800	1858899.975	0.0031	0.0326	0.8431	1.5608	1.9751	0
201	16	30	1	6	410.1776	56	1	800	1858899.975	0.0031	0.0213	0.833	1.5507	1.9649	0
201	17	1	1	6	380.2721	29	1	800	1858980.849	0.003	0.0103	0.8222	1.5287	1.9123	0
201	17	2	1	6	329.1583	56	1	800	1858980.849	0.003	1.9403	2.7517	3.4585	3.791	0
201	17	3	1	6	442.3313	29	1	800	1858980.849	0.003	3.8107	4.6225	5.3284	5.7741	0
201	17	4	1	6	367.1168	56	1	800	1858980.849	0.003	5.7991	6.6108	7.3168	7.6874	0
201	17	5	1	6	370.6034	29	0	800	1858980.849	0.003	7.705	8.517	9.2229	9.5968	0
201	17	6	1	6	698.4621	1	0	800	1858980.849	0.003	0.0291	0.8409	1.5587	2.2601	0
201	17	7	1	6	412.0951	56	1	800	1858980.849	0.003	0.0223	0.8341	1.5518	1.9672	0
201	17	8	1	6	347.6895	56	1	800	1858980.849	0.003	1.9874	2.7989	3.5049	3.856	0
201	17	9	1	6	372.4914	29	0	800	1858980.849	0.003	3.8814	4.6932	5.3991	5.7747	0
201	17	10	1	6	603.7765	29	0	800	1858980.849	0.003	0.0294	0.8412	1.5589	2.1659	0
201	17	11	1	6	454.3608	29	1	800	1858980.849	0.003	0.0215	0.8334	1.5513	2.0087	0
201	17	12	1	6	340.9813	56	1	800	1858980.849	0.003	2.0335	2.8454	3.5512	3.8956	0
201	17	1	2	6	430.0217	56	1	800	1858980.849	0.003	0.009	0.8209	1.5268	1.9607	3.9047
201	17	2	2	6	395.2725	29	1	800	1858980.849	0.003	1.9856	2.7974	3.5034	3.902	3.9047
201	17	3	2	6	486.7698	56	1	800	1858980.849	0.003	3.9269	4.7388	5.4448	5.9348	3.9047
201	17	4	2	6	347.9757	56	1	800	1858980.849	0.003	5.9624	6.7742	7.4802	7.8316	3.9047
201	17	5	2	6	398.1362	56	1	800	1858980.849	0.003	7.8566	8.6684	9.3744	9.7759	3.9047
201	17	6	2	6	311.5631	56	1	800	1858980.849	0.003	9.798	10.61	11.3157	11.6304	3.9047
201	17	7	2	6	498.3784	29	1	800	1858980.849	0.003	11.6639	12.4805	13.1865	13.6883	3.9047
201	17	8	2	6	304.5188	56	1	800	1858980.849	0.003	13.716	14.5278	15.2336	15.5414	3.9047
201	17	9	2	6	566.1785	29	1	800	1858980.849	0.003	15.5633	16.375	17.0809	17.6503	3.9047
201	17	10	2	6	451.2658	56	1	800	1858980.849	0.003	17.6811	18.4928	19.1987	19.6536	3.9047
201	17	11	2	6	420.7238	56	1	800	1858980.849	0.003	19.681	20.493	21.1988	21.6243	3.9047
201	17	12	2	6	353.278	56	1	800	1858980.849	0.003	21.6459	22.4577	23.1637	23.5202	3.9047
201	18	1	1	6	405.5605	29	0	800	1859044.371	0.0029	0.013	0.8249	1.5309	1.9398	0
201	18	2	1	6	429.2797	56	1	800	1859044.371	0.0029	0.0218	0.8337	1.5513	1.984	0
201	18	3	1	6	443.6707	56	1	800	1859044.371	0.0029	2.0101	2.822	3.5279	3.9749	0
201	18	4	1	6	363.0882	56	1	800	1859044.371	0.0029	3.9985	4.8104	5.5163	5.8831	0
201	18	5	1	6	333.5891	56	1	800	1859044.371	0.0029	5.9047	6.7164	7.4224	7.7593	0
201	18	6	1	6	379.8568	56	1	800	1859044.371	0.0029	7.7871	8.5989	9.3049	9.6882	0
201	18	7	1	6	331.9358	56	1	800	1859044.371	0.0029	9.7166	10.5284	11.2345	11.5696	0
201	18	8	1	6	579.0076	29	1	800	1859044.371	0.0029	11.5876	12.3992	13.1051	13.6874	0
201	18	9	1	6	389.3315	56	1	800	1859044.371	0.0029	13.7051	14.517	15.2229	15.6158	0
201	18	10	1	6	505.9144	29	1	800	1859044.371	0.0029	15.6466	16.4584	17.1642	17.6734	0
201	18	11	1	6	609.7184	29	1	800	1859044.371	0.0029	17.6938	18.5056	19.2116	19.8259	0
201	18	12	1	6	327.2836	56	1	800	1859044.371	0.0029	19.8468	20.6586	21.3647	21.6955	0
201	18	13	1	6	393.7661	29	1	800	1859044.371	0.0029	21.7176	22.5294	23.2353	23.6325	0
201	18	14	1	6	561.312	29	1	800	1859044.371	0.0029	23.6588	24.4707	25.1767	25.7433	0
201	18	15	1	6	312.3449	56	1	800	1859044.371	0.0029	25.7649	26.5768	27.2827	27.5984	0
201	18	16	1	6	382.1569	29	1	800	1859044.371	0.0029	27.6239	28.4357	29.1416	29.5271	0
201	18	17	1	6	304.739	56	1	800	1859044.371	0.0029	29.5535	30.3652	31.0711	31.3798	0
201	18	18	1	6	454.8658	56	1	800	1859044.371	0.0029	31.4006	32.2124	32.9184	33.3773	0
201	18	19	1	6	388.3587	56	1	800	1859044.371	0.0029	33.4008	34.2125	34.9189	35.3105	0
201	18	20	1	6	309.6905	56	1	800	1859044.371	0.0029	35.3303	36.1425	36.848	37.1608	0
201	18	21	1	6	342.2408	56	1	800	1859044.371	0.0029	37.1774	37.9894	38.6954	39.041	0
201	18	22	1	6	427.4171	29	1	800	1859044.371	0.0029	39.06	39.8719	40.5778	41.0088	0
201	18	23	1	6	303.7824	56	1	800	1859044.371	0.0029	41.0366	41.8484	42.5543	42.8619	0
201	18	24	1	6	393.7691	29	1	800	1859044.371	0.0029	42.8838	43.6957	44.4016	44.7987	0
201	18	25	1	6	341.624	29	1	800	1859044.371	0.0029	44.8251	45.6369	46.3429	46.688	0
201	18	26	1	6	283.7984	56	1	800	1859044.371	0.0029	46.7076	47.5195	48.2254	48.5125	0
201	18	27	1	6	388.7889	29	1	800	1859044.371	0.0029	48.5313	49.3431	50.049	50.4412	0
201	18	28	1	6	416.9931	29	0	800	1859044.371	0.0029	50.4608	51.2727	51.9786	52.3988	0
201	18	29	1	6	376.15	29	0	800	1859044.371	0.0029	0.0272	0.839	1.5566	1.936	0
201	18	30	1	6	466.8933	29	1	800	1859044.371	0.0029	0.0233	0.835	1.5527	2.0272	0
201	19	1	1	7	388.296	29	1	800	1859120.506	0.0028	0.0137	0.8255	1.5315	1.9234	0
201	19	2	1	7	374.0732	29	1	800	1859120.506	0.0028	1.9433	2.7551	3.4609	3.8383	0
201	19	3	1	7	421.9863	29	1	800	1859120.506	0.0028	3.861	4.6728	5.3788	5.8041	0
201	19	4	1	7	306.237	56	1	800	1859120.506	0.0028	5.8259	6.6377	7.3437	7.6533	0
201	19	5	1	7	424.3995	56	1	800	1859120.506	0.0028	7.6731	8.4849	9.1909	9.6288	0
201	19	6	1	7	359.9833	29	1	800	1859120.506	0.0028	9.6497	10.4615	11.1675	11.5308	0
201	19	7	1	7	368.7229	29	1	800	1859120.506	0.0028	11.5557	12.3676	13.0735	13.4461	0
201	19	8	1	7	314.1226	29	1	800	1859120.506	0.0028	13.4735	14.2853	14.9912	15.3087	0
201	19	9	1	7	333.6206	56	1	800	1859120.506	0.0028	15.3325	16.1444	16.8502	17.187	0
201	19	10	1	7	619.2959	29	1	800	1859120.506	0.0028	17.2149	18.0268	18.7328	19.3555	0
201	19	11	1	7	426.3675	29	0	800	1859120.506	0.0028	19.3798	20.192	20.8976	21.3273	0
201	19	12	1	7	527.116	29	1	800	1859120.506	0.0028	0.0302	0.842	1.5598	2.0902	0
201	19	1	2	7	390.4275	29	1	800	1859120.506	0.0028	0.0083	0.8202	1.5261	1.9203	2.0998
201	19	2	2	7	354.0762	56	1	800	1859120.506	0.0028	1.9378	2.7496	3.4556	3.813	2.0998
201	19	3	2	7	468.0009	29	1	800	1859120.506	0.0028	3.8321	4.6439	5.3499	5.8218	2.0998
201	19	4	2	7	351.2774	56	1	800	1859120.506	0.0028	5.844	6.6559	7.3618	7.7255	2.0998
201	19	5	2	7	351.6193	56	1	800	1859120.506	0.0028	7.75	8.562	9.2678	9.6234	2.0998
201	19	6	2	7	447.6791	29	1	800	1859120.506	0.0028	9.6443	10.4562	11.1621	11.6129	2.0998
201	19	7	2	7	388.4318	56	1	800	1859120.506	0.0028	11.6327	12.4449	13.1505	13.5422	2.0998
201	19	8	2	7	322.5993	29	1	800	1859120.506	0.0028	13.5622	14.374	15.08	15.406	2.0998
201	19	9	2	7	364.8576	56	1	800	1859120.506	0.0028	15.433	16.2448	16.9507	17.319	2.0998
201	19	10	2	7	432.0733	56	1	800	1859120.506	0.0028	17.339	18.1508	18.8568	19.2973	2.0998
201	19	11	2	7	480.8963	29	1	800	1859120.506	0.0028	19.3155	20.1275	20.8334	21.3176	2.0998
201	19	12	2	7	342.6244	56	1	800	1859120.506	0.0028	21.3393	22.1526	22.8688	23.2148	2.0998
201	20	1	1	7	338.855	56	1	800	1859181.828	0.0028	0.0114	0.8233	1.5292	1.8722	0
201	20	2	1	7	395.3127	29	1	800	1859181.828	0.0028	1.8939	2.7058	3.4117	3.8118	0
201	20	3	1	7	397.3099	56	1	800	1859181.828	0.0028	3.8352	4.6471	5.3532	5.7544	0
201	20	4	1	7	351.5127	29	1	800	1859181.828	0.0028	5.7766	6.5885	7.2944	7.6491	0
201	20	5	1	7	420.0165	29	0	800	1859181.828	0.0028	7.6708	8.4826	9.1887	9.6121	0
201	20	6	1	7	358.1989	56	1	800	1859181.828	0.0028	0.0215	0.8335	1.5513	1.9128	0
201	20	7	1	7	604.8287	29	1	800	1859181.828	0.0028	1.9394	2.7513	3.4572	4.0654	0
201	20	8	1	7	357.5078	56	1	800	1859181.828	0.0028	4.0924	4.9043	5.6104	5.9713	0
201	20	9	1	7	503.6962	29	1	800	1859181.828	0.0028	5.9985	6.8104	7.5163	8.0234	0
201	20	10	1	7	328.433	56	1	800	1859181.828	0.0028	8.0457	8.8576	9.5635	9.8953	0
201	20	11	1	7	290.6143	56	1	800	1859181.828	0.0028	9.9164	10.7282	11.4342	11.7293	0
201	20	12	1	7	358.9434	29	1	800	1859181.828	0.0028	11.7518	12.5638	13.2696	13.6318	0
201	20	13	1	7	387.3977	56	1	800	1859181.828	0.0028	13.6579	14.4697	15.1757	15.5666	0
201	20	14	1	7	450.6571	29	1	800	1859181.828	0.0028	15.5876	16.3992	17.1052	17.559	0
201	20	15	1	7	453.6554	56	1	800	1859181.828	0.0028	17.5876	18.3995	19.1054	19.5622	0
201	20	16	1	7	316.5068	56	1	800	1859181.828	0.0028	19.5877	20.3996	21.1056	21.4266	0
201	20	17	1	7	495.1542	29	0	800	1859181.828	0.0028	21.447	22.2586	22.9644	23.4629	0
201	20	18	1	7	339.4513	56	1	800	1859181.828	0.0028	0.022	0.8339	1.5516	1.8951	0
201	20	19	1	7	361.7535	56	1	800	1859181.828	0.0028	1.9163	2.7282	3.4341	3.7992	0
201	20	20	1	7	358.7219	56	1	800	1859181.828	0.0028	3.8224	4.6342	5.3401	5.7023	0
201	20	21	1	7	362.3568	56	1	800	1859181.828	0.0028	5.7284	6.5402	7.2462	7.6124	0
201	20	22	1	7	402.7077	56	1	800	1859181.828	0.0028	7.6344	8.4463	9.1521	9.5582	0
201	20	23	1	7	325.6624	56	1	800	1859181.828	0.0028	9.5757	10.3876	11.0935	11.4225	0
201	20	24	1	7	448.5413	29	1	800	1859181.828	0.0028	11.4465	12.2583	12.9642	13.416	0
201	20	25	1	7	332.109	56	1	800	1859181.828	0.0028	13.4348	14.2467	14.9526	15.288	0
201	20	26	1	7	477.8612	29	1	800	1859181.828	0.0028	15.3055	16.1174	16.8233	17.3049	0
201	20	27	1	7	501.807	56	1	800	1859181.828	0.0028	17.33	18.1411	18.8469	19.3519	0
201	20	28	1	7	307.5761	56	1	800	1859181.828	0.0028	19.3882	20.2001	20.906	21.2173	0
201	20	29	1	7	434.5835	29	1	800	1859181.828	0.0028	21.2354	22.0473	22.7532	23.1912	0
201	20	30	1	7	514.7273	29	1	800	1859181.828	0.0028	23.212	24.0239	24.7298	25.2479	0
201	21	1	1	7	489.1962	29	1	800	1859263.116	0.0028	0.0163	0.828	1.5339	2.0269	0
201	21	2	1	7	626.4345	56	0	800	1859263.116	0.0028	2.0515	2.8634	3.5693	4.199	0
201	21	3	1	7	476.5784	56	1	800	1859263.116	0.0028	0.0318	0.8436	1.5612	2.0429	0
201	21	4	1	7	563.3221	56	1	800	1859263.116	0.0028	2.0672	2.8791	3.585	4.1525	0
201	21	5	1	7	475.4343	29	1	800	1859263.116	0.0028	4.1733	4.9851	5.691	6.1698	0
201	21	6	1	7	370.0817	29	1	800	1859263.116	0.0028	6.197	7.0088	7.7148	8.088	0
201	21	7	1	7	350.0251	56	1	800	1859263.116	0.0028	8.1147	8.9265	9.6326	9.9867	0
201	21	8	1	7	343.9528	56	1	800	1859263.116	0.0028	10.0091	10.821	11.5267	11.874	0
201	21	9	1	7	510.89	56	1	800	1859263.116	0.0028	11.8914	12.7033	13.4092	13.9233	0
201	21	10	1	7	385.9723	56	1	800	1859263.116	0.0028	13.9504	14.7623	15.4682	15.8576	0
201	21	11	1	7	423.6823	29	0	800	1859263.116	0.0028	15.8799	16.6918	17.3977	17.825	0
201	21	12	1	7	350.2013	29	1	800	1859263.116	0.0028	0.0302	0.842	1.5597	1.9145	0
201	21	1	2	7	417.4487	56	1	800	1859263.116	0.0028	0.0162	0.828	1.5339	1.9683	1.924
201	21	2	2	7	496.2881	29	1	800	1859263.116	0.0028	1.9928	2.8046	3.5106	4.0102	1.924
201	21	3	2	7	435.6509	29	1	800	1859263.116	0.0028	4.0283	4.8401	5.5459	5.9849	1.924
201	21	4	2	7	437.0984	29	1	800	1859263.116	0.0028	6.0048	6.8167	7.5226	7.9629	1.924
201	21	5	2	7	295.7642	56	1	800	1859263.116	0.0028	7.9932	8.805	9.511	9.8102	1.924
201	21	6	2	7	331.7835	56	1	800	1859263.116	0.0028	9.8286	10.6405	11.3463	11.6814	1.924
201	21	7	2	7	342.4467	56	1	800	1859263.116	0.0028	11.6993	12.5116	13.2171	13.5629	1.924
201	21	8	2	7	347.0887	56	1	800	1859263.116	0.0028	13.5827	14.3936	15.0996	15.4502	1.924
201	21	9	2	7	356.3332	29	1	800	1859263.116	0.0028	15.4761	16.288	16.9939	17.3536	1.924
201	21	10	2	7	311.3859	56	1	800	1859263.116	0.0028	17.3821	18.194	18.8999	19.2145	1.924
201	21	11	2	7	336.111	29	1	800	1859263.116	0.0028	19.2411	20.0529	20.7589	21.0983	1.924
201	21	12	2	7	460.8467	29	1	800	1859263.116	0.0028	21.1236	21.9354	22.6414	23.1057	1.924
201	22	1	1	8	446.095	56	1	800	1859330.498	0.0029	0.0167	0.8286	1.5345	1.9839	0
201	22	2	1	8	335.9542	56	1	800	1859330.498	0.0029	2.0051	2.817	3.5229	3.8622	0
201	22	3	1	8	319.9073	56	1	800	1859330.498	0.0029	3.8876	4.6995	5.4054	5.7286	0
201	22	4	1	8	332.1753	56	1	800	1859330.498	0.0029	5.7466	6.5586	7.2645	7.6	0
201	22	5	1	8	467.3158	56	1	800	1859330.498	0.0029	7.6173	8.4292	9.1353	9.6145	0
201	22	6	1	8	308.7925	56	1	800	1859330.498	0.0029	9.641	10.4529	11.1588	11.4709	0
201	22	7	1	8	453.1043	29	1	800	1859330.498	0.0029	11.4882	12.3	13.0067	13.4631	0
201	22	8	1	8	496.2503	29	1	800	1859330.498	0.0029	13.4884	14.3002	15.0062	15.5147	0
201	22	9	1	8	591.1354	56	1	800	1859330.498	0.0029	15.5355	16.3474	17.0534	17.648	0
201	22	10	1	8	404.0983	29	1	800	1859330.498	0.0029	17.6652	18.477	19.1829	19.5905	0
201	22	11	1	8	426.5958	29	1	800	1859330.498	0.0029	19.6182	20.43	21.1361	21.5659	0
201	22	12	1	8	437.1417	29	1	800	1859330.498	0.0029	21.5949	22.4067	23.1126	23.5533	0
201	22	13	1	8	286.8842	56	1	800	1859330.498	0.0029	23.5833	24.3951	25.101	25.3912	0
201	22	14	1	8	347.7721	56	1	800	1859330.498	0.0029	25.4187	26.2306	26.9364	27.2873	0
201	22	15	1	8	390.1975	29	1	800	1859330.498	0.0029	27.3129	28.1248	28.8307	29.2244	0
201	22	16	1	8	488.3562	29	1	800	1859330.498	0.0029	29.2425	30.0543	30.772	31.2637	0
201	22	17	1	8	326.1491	56	1	800	1859330.498	0.0029	31.2897	32.1015	32.8075	33.1375	0
201	22	18	1	8	322.9995	56	1	800	1859330.498	0.0029	33.1725	33.984	34.69	35.0164	0
201	22	19	1	8	340.7997	29	1	800	1859330.498	0.0029	35.0429	35.8548	36.5607	36.9049	0
201	22	20	1	8	336.7046	56	1	800	1859330.498	0.0029	36.9255	37.7372	38.4431	38.7851	0
201	22	21	1	8	358.2555	56	1	800	1859330.498	0.0029	38.8079	39.6197	40.3259	40.6877	0
201	22	22	1	8	397.1479	29	1	800	1859330.498	0.0029	40.7139	41.5257	42.2316	42.6322	0
201	22	23	1	8	318.5687	56	1	800	1859330.498	0.0029	42.6552	43.4671	44.1731	44.495	0
201	22	24	1	8	440.464	29	1	800	1859330.498	0.0029	44.5259	45.3378	46.0438	46.4876	0
201	22	25	1	8	483.6093	29	1	800	1859330.498	0.0029	46.5144	47.3262	48.0322	48.5191	0
201	22	26	1	8	359.5716	29	1	800	1859330.498	0.0029	48.538	49.3499	50.0559	50.4186	0
201	22	27	1	8	347.5724	56	1	800	1859330.498	0.0029	50.4448	51.2559	51.9618	52.3131	0
201	22	28	1	8	434.8286	29	1	800	1859330.498	0.0029	52.3383	53.1501	53.8561	54.2945	0
201	22	29	1	8	325.8684	56	1	800	1859330.498	0.0029	54.315	55.1268	55.8326	56.1633	0
201	22	30	1	8	324.6862	29	1	800	1859330.498	0.0029	56.1877	56.9975	57.7034	58.0315	0
201	23	1	1	8	390.7902	29	1	800	1859411.434	0.0029	0.0173	0.8292	1.5352	1.9292	0
201	23	2	1	8	373.8396	56	1	800	1859411.434	0.0029	1.9469	2.7586	3.4646	3.843	0
201	23	3	1	8	366.3675	56	1	800	1859411.434	0.0029	3.8646	4.6766	5.3824	5.752	0
201	23	4	1	8	315.6932	29	1	800	1859411.434	0.0029	5.7707	6.5825	7.2886	7.6077	0
201	23	5	1	8	402.7342	29	0	800	1859411.434	0.0029	7.6297	8.4414	9.1474	9.5535	0
201	23	6	1	8	619.0555	29	1	800	1859411.434	0.0029	0.0317	0.8435	1.5613	2.1836	0
201	23	7	1	8	394.339	29	1	800	1859411.434	0.0029	2.2083	3.0202	3.7261	4.1237	0
201	23	8	1	8	385.9976	56	1	800	1859411.434	0.0029	4.1497	4.9615	5.6674	6.0568	0
201	23	9	1	8	376.5069	56	1	800	1859411.434	0.0029	6.0792	6.8911	7.597	7.977	0
201	23	10	1	8	328.9924	56	1	800	1859411.434	0.0029	7.997	8.8089	9.5148	9.847	0
201	23	11	1	8	338.1609	56	1	800	1859411.434	0.0029	9.8677	10.6796	11.3857	11.7281	0
201	23	12	1	8	466.0658	56	1	800	1859411.434	0.0029	11.7503	12.5621	13.268	13.7375	0
201	23	1	2	8	389.0304	29	1	800	1859411.434	0.0029	0.0188	0.8307	1.5366	1.9291	13.7467
201	23	2	2	8	507.2317	29	1	800	1859411.434	0.0029	1.9484	2.7602	3.4662	3.9769	13.7467
201	23	3	2	8	330.9957	56	1	800	1859411.434	0.0029	3.9957	4.8075	5.5134	5.8477	13.7467
201	23	4	2	8	318.3865	56	1	800	1859411.434	0.0029	5.8664	6.6782	7.3842	7.7062	13.7467
201	23	5	2	8	259.0323	56	1	800	1859411.434	0.0029	7.7253	8.5371	9.2431	9.5057	13.7467
201	23	6	2	8	321.5884	56	1	800	1859411.434	0.0029	9.5254	10.3373	11.0438	11.3685	13.7467
201	23	7	2	8	315.2216	56	1	800	1859411.434	0.0029	11.3966	12.208	12.914	13.2337	13.7467
201	23	8	2	8	487.6403	29	1	800	1859411.434	0.0029	13.2551	14.067	14.773	15.2639	13.7467
201	23	9	2	8	362.6898	29	1	800	1859411.434	0.0029	15.2907	16.1024	16.8084	17.1747	13.7467
201	23	10	2	8	489.2789	56	1	800	1859411.434	0.0029	17.1966	18.0085	18.7144	19.2073	13.7467
201	23	11	2	8	295.9412	56	1	800	1859411.434	0.0029	19.232	20.044	20.7499	21.0491	13.7467
201	23	12	2	8	387.3672	56	0	800	1859411.434	0.0029	21.0675	21.8793	22.5852	22.9768	13.7467
201	23	1	3	8	447.652	56	1	800	1859411.434	0.0029	0.0126	0.8244	1.5303	1.9813	0.0091
201	23	2	3	8	419.1068	56	1	800	1859411.434	0.0029	2.001	2.8128	3.5187	3.9415	0.0091
201	23	3	3	8	339.5996	56	1	800	1859411.434	0.0029	3.966	4.7777	5.4835	5.8268	0.0091
201	23	4	3	8	341.5766	56	1	800	1859411.434	0.0029	5.8482	6.6601	7.3661	7.711	0.0091
201	23	5	3	8	412.5324	29	1	800	1859411.434	0.0029	7.7307	8.5426	9.2486	9.6645	0.0091
201	23	6	3	8	505.1886	29	1	800	1859411.434	0.0029	9.6839	10.4957	11.2017	11.7102	0.0091
201	23	7	3	8	387.0821	56	1	800	1859411.434	0.0029	11.7311	12.5429	13.249	13.6398	0.0091
201	23	8	3	8	322.0836	56	1	800	1859411.434	0.0029	13.6606	14.4724	15.1785	15.5045	0.0091
201	23	9	3	8	424.7727	29	1	800	1859411.434	0.0029	15.5314	16.3432	17.0492	17.4776	0.0091
201	23	10	3	8	363.8261	56	1	800	1859411.434	0.0029	17.4962	18.308	19.0139	19.3935	0.0091
201	23	11	3	8	470.7746	29	1	800	1859411.434	0.0029	19.414	20.2258	20.9318	21.406	0.0091
201	23	12	3	8	330.13	56	1	800	1859411.434	0.0029	21.4259	22.2378	22.9437	23.2773	0.0091
201	24	1	1	8	396.7822	29	1	800	1859512.559	0.0031	0.018	0.8298	1.5358	1.9371	0
201	24	2	1	8	351.3126	29	1	800	1859512.559	0.0031	1.9598	2.7711	3.4771	3.8328	0
201	24	3	1	8	518.5543	29	1	800	1859512.559	0.0031	3.8536	4.6654	5.3713	5.9061	0
201	24	4	1	8	411.9977	56	1	800	1859512.559	0.0031	5.9362	6.7479	7.4539	7.8691	0
201	24	5	1	8	338.8705	56	1	800	1859512.559	0.0031	7.8891	8.7015	9.4069	9.7564	0
201	24	6	1	8	373.2842	29	1	800	1859512.559	0.0031	9.7834	10.5952	11.3011	11.6782	0
201	24	7	1	8	330.9792	29	1	800	1859512.559	0.0031	11.7012	12.513	13.2189	13.5532	0
201	24	8	1	8	337.2636	56	1	800	1859512.559	0.0031	13.5719	14.3838	15.0897	15.4301	0
201	24	9	1	8	358.5386	56	1	800	1859512.559	0.0031	15.4545	16.2663	16.9722	17.3342	0
201	24	10	1	8	332.6005	29	1	800	1859512.559	0.0031	17.3604	18.1728	18.8783	19.2142	0
201	24	11	1	8	282.1894	56	1	800	1859512.559	0.0031	19.2311	20.043	20.749	21.0363	0
201	24	12	1	8	399.1447	29	1	800	1859512.559	0.0031	21.0549	21.8666	22.5729	22.9754	0
201	24	13	1	8	386.4301	29	1	800	1859512.559	0.0031	22.9961	23.808	24.514	24.9038	0
201	24	14	1	8	417.5843	29	1	800	1859512.559	0.0031	24.9256	25.7375	26.4435	26.8643	0
201	24	15	1	8	385.3773	29	1	800	1859512.559	0.0031	26.8905	27.7025	28.4084	28.7992	0
201	24	16	1	8	419.233	29	1	800	1859512.559	0.0031	28.8204	29.6327	30.3379	30.7611	0
201	24	17	1	8	334.8136	29	1	800	1859512.559	0.0031	30.7849	31.5968	32.3028	32.6409	0
201	24	18	1	8	457.1823	29	1	800	1859512.559	0.0031	32.6676	33.4793	34.1853	34.6458	0
201	24	19	1	8	320.2892	56	1	800	1859512.559	0.0031	34.6677	35.4795	36.1854	36.5093	0
201	24	20	1	8	346.3665	29	1	800	1859512.559	0.0031	36.5384	37.3501	38.0562	38.4058	0
201	24	21	1	8	324.7569	56	1	800	1859512.559	0.0031	38.4327	39.2445	39.9504	40.2785	0
201	24	22	1	8	341.282	29	1	800	1859512.559	0.0031	40.3033	41.1152	41.8211	42.1657	0
201	24	23	1	8	315.8745	56	1	800	1859512.559	0.0031	42.1858	42.9977	43.7035	44.0232	0
201	24	24	1	8	389.782	56	1	800	1859512.559	0.0031	44.0577	44.8684	45.5744	45.9675	0
201	24	25	1	8	339.749	29	1	800	1859512.559	0.0031	45.9861	46.798	47.5039	47.8471	0
201	24	26	1	8	447.9134	29	1	800	1859512.559	0.0031	47.8687	48.6805	49.3864	49.8453	0
201	24	27	1	8	455.3674	56	1	800	1859512.559	0.0031	49.8688	50.6806	51.3866	51.8453	0
201	24	28	1	8	408.7469	56	1	800	1859512.559	0.0031	51.8689	52.6808	53.3867	53.799	0
201	24	29	1	8	318.714	56	1	800	1859512.559	0.0031	53.822	54.6338	55.3398	55.662	0
201	24	30	1	8	499.0845	56	1	800	1859512.559	0.0031	55.6809	56.4928	57.1987	57.7088	0
201	25	1	1	9	498.3464	29	1	800	1859585.776	0.0028	0.0165	0.8283	1.5343	2.0359	0
201	25	2	1	9	592.3625	29	1	800	1859585.776	0.0028	2.0638	2.8755	3.5815	4.1772	0
201	25	3	1	9	364.999	56	1	800	1859585.776	0.0028	4.205	5.0176	5.7228	6.0912	0
201	25	4	1	9	476.2874	29	1	800	1859585.776	0.0028	6.1111	6.9229	7.6289	8.1084	0
201	25	5	1	9	416.8444	29	1	800	1859585.776	0.0028	8.1347	8.9467	9.6526	10.073	0
201	25	6	1	9	388.7408	29	1	800	1859585.776	0.0028	10.0997	10.9114	11.6174	12.0093	0
201	25	7	1	9	338.9462	56	1	800	1859585.776	0.0028	12.0291	12.8411	13.5468	13.8909	0
201	25	8	1	9	369.9152	29	1	800	1859585.776	0.0028	13.9116	14.7235	15.4294	15.8028	0
201	25	9	1	9	401.4825	29	1	800	1859585.776	0.0028	15.8294	16.6412	17.3472	17.752	0
201	25	10	1	9	316.0483	56	1	800	1859585.776	0.0028	17.7707	18.5825	19.2886	19.616	0
201	25	11	1	9	478.991	29	1	800	1859585.776	0.0028	19.6416	20.4533	21.1593	21.6427	0
201	25	12	1	9	423.2435	56	1	800	1859585.776	0.0028	21.6652	22.477	23.183	23.6099	0
201	26	1	1	9	482.2015	56	1	800	1859624.567	0.0029	0.0114	0.8232	1.5291	2.0149	0
201	26	2	1	9	322.2264	56	1	800	1859624.567	0.0029	2.0351	2.8469	3.5529	3.8783	0
201	26	3	1	9	347.7406	29	1	800	1859624.567	0.0029	3.9059	4.7176	5.4236	5.7748	0
201	26	4	1	9	303.5777	56	1	800	1859624.567	0.0029	5.8	6.6119	7.3181	7.6254	0
201	26	5	1	9	420.5205	29	1	800	1859624.567	0.0029	7.6482	8.4608	9.1769	9.6018	0
201	26	6	1	9	407.5908	29	1	800	1859624.567	0.0029	9.6238	10.4357	11.1416	11.5525	0
201	26	7	1	9	334.417	29	1	800	1859624.567	0.0029	11.5818	12.3888	13.0948	13.4327	0
201	26	8	1	9	658.7082	29	1	800	1859624.567	0.0029	13.4595	14.2714	14.9773	15.6396	0
201	26	9	1	9	491.2499	29	1	800	1859624.567	0.0029	15.6597	16.4715	17.1774	17.673	0
201	26	10	1	9	419.1312	56	1	800	1859624.567	0.0029	17.6951	18.5069	19.2133	19.638	0
201	26	11	1	9	363.916	56	1	800	1859624.567	0.0029	19.6611	20.4718	21.1777	21.545	0
201	26	12	1	9	297.4259	56	1	800	1859624.567	0.0029	21.5659	22.3779	23.0837	23.3843	0
201	26	13	1	9	350.0305	29	1	800	1859624.567	0.0029	23.4132	24.225	24.9308	25.2864	0
201	26	14	1	9	442.7525	29	1	800	1859624.567	0.0029	25.3074	26.1193	26.8252	27.2714	0
201	26	15	1	9	334.2133	56	1	800	1859624.567	0.0029	27.2962	28.1077	28.8135	29.151	0
201	26	16	1	9	349.6344	29	1	800	1859624.567	0.0029	29.1783	29.9901	30.6961	31.0497	0
201	26	17	1	9	350.2162	29	1	800	1859624.567	0.0029	31.0726	31.8844	32.5903	32.9449	0
201	26	18	1	9	439.9946	29	0	800	1859624.567	0.0029	32.9668	33.7787	34.4846	34.928	0
201	26	19	1	9	453.7081	56	1	800	1859624.567	0.0029	0.0321	0.8438	1.5615	2.0192	0
201	26	20	1	9	445.289	29	1	800	1859624.567	0.0029	2.0439	2.8557	3.5617	4.0108	0
201	26	21	1	9	441.1554	29	1	800	1859624.567	0.0029	4.0344	4.8441	5.5501	5.9946	0
201	26	22	1	9	395.5467	56	1	800	1859624.567	0.0029	6.0207	6.8326	7.5385	7.9372	0
201	26	23	1	9	336.2023	56	1	800	1859624.567	0.0029	7.962	8.7739	9.4798	9.8193	0
201	26	24	1	9	308.1205	56	1	800	1859624.567	0.0029	9.8445	10.6564	11.3629	11.6745	0
201	26	25	1	9	330.0937	29	1	800	1859624.567	0.0029	11.7039	12.5153	13.2213	13.5548	0
201	26	26	1	9	397.0312	56	1	800	1859624.567	0.0029	13.5742	14.386	15.092	15.4929	0
201	26	27	1	9	645.5599	29	1	800	1859624.567	0.0029	15.5155	16.3273	17.0333	17.6834	0
201	26	28	1	9	511.2673	56	1	800	1859624.567	0.0029	17.7039	18.5157	19.2217	19.7364	0
201	26	29	1	9	396.1672	56	1	800	1859624.567	0.0029	19.7629	20.5747	21.2807	21.6805	0
201	26	30	1	9	386.2354	56	1	800	1859624.567	0.0029	21.7042	22.516	23.222	23.6119	0
201	27	1	1	9	372.6652	29	1	800	1859754.071	0.0031	0.0094	0.8213	1.5272	1.9039	0
201	27	2	1	9	381.1509	29	1	800	1859754.071	0.0031	1.939	2.7509	3.4568	3.8416	0
201	27	3	1	9	315.5914	56	1	800	1859754.071	0.0031	3.8686	4.6804	5.3863	5.7058	0
201	27	4	1	9	335.8659	29	1	800	1859754.071	0.0031	5.7276	6.5394	7.2454	7.5846	0
201	27	5	1	9	356.2981	29	1	800	1859754.071	0.0031	7.6101	8.4218	9.1278	9.4874	0
201	27	6	1	9	324.8406	56	1	800	1859754.071	0.0031	9.5161	10.3283	11.0338	11.3622	0
201	27	7	1	9	299.1925	56	1	800	1859754.071	0.0031	11.3868	12.199	12.9046	13.2162	0
201	27	8	1	9	324.5182	56	1	800	1859754.071	0.0031	13.2339	14.0459	14.7519	15.0798	0
201	27	9	1	9	381.7023	56	1	800	1859754.071	0.0031	15.1047	15.9166	16.6225	17.0076	0
201	27	10	1	9	366.8706	29	1	800	1859754.071	0.0031	17.0343	17.8461	18.5521	18.9221	0
201	27	11	1	9	355.1276	56	1	800	1859754.071	0.0031	18.9404	19.7521	20.4581	20.8166	0
201	27	12	1	9	356.2	56	1	800	1859754.071	0.0031	20.8346	21.6464	22.3524	22.7119	0
201	28	1	1	10	385.3906	29	1	800	1859796.545	0.0031	0.0083	0.8202	1.5261	1.9327	0
201	28	2	1	10	405.8152	29	1	800	1859796.545	0.0031	1.9616	2.7733	3.4791	3.8979	0
201	28	3	1	10	515.3058	29	1	800	1859796.545	0.0031	3.9263	4.7381	5.444	5.9638	0
201	28	4	1	10	343.7311	56	1	800	1859796.545	0.0031	5.9853	6.7975	7.5031	7.8502	0
201	28	5	1	10	310.6438	29	1	800	1859796.545	0.0031	7.8678	8.6796	9.3855	9.6994	0
201	28	6	1	10	315.8099	56	1	800	1859796.545	0.0031	9.7267	10.5385	11.2445	11.564	0
201	28	7	1	10	335.6727	29	1	800	1859796.545	0.0031	11.5857	12.3975	13.1035	13.4426	0
201	28	8	1	10	397.7944	56	1	800	1859796.545	0.0031	13.4681	14.2801	14.986	15.3883	0
201	28	9	1	10	398.7473	29	1	800	1859796.545	0.0031	15.4094	16.2213	16.9272	17.3426	0
201	28	10	1	10	476.544	56	0	800	1859796.545	0.0031	17.3626	18.1744	18.8804	19.3601	0
201	28	11	1	10	409.0847	56	1	800	1859796.545	0.0031	0.0245	0.8364	1.5541	1.9668	0
201	28	12	1	10	336.4216	56	1	800	1859796.545	0.0031	1.9893	2.8012	3.5071	3.847	0
201	28	13	1	10	300.8989	56	1	800	1859796.545	0.0031	3.872	4.6836	5.3896	5.6939	0
201	28	14	1	10	328.4375	56	1	800	1859796.545	0.0031	5.7203	6.5308	7.2368	7.5707	0
201	28	15	1	10	352.9369	29	1	800	1859796.545	0.0031	7.5898	8.4016	9.1075	9.4638	0
201	28	16	1	10	383.6587	29	1	800	1859796.545	0.0031	9.484	10.2959	11.0018	11.389	0
201	28	17	1	10	299.8562	56	1	800	1859796.545	0.0031	11.4136	12.2254	12.9313	13.2344	0
201	28	18	1	10	369.8953	29	1	800	1859796.545	0.0031	13.2608	14.0726	14.7786	15.1524	0
201	28	19	1	10	450.6269	56	1	800	1859796.545	0.0031	15.1786	15.9905	16.6963	17.1501	0
201	28	20	1	10	322.9796	29	1	800	1859796.545	0.0031	17.1787	17.9906	18.6965	19.0227	0
201	28	21	1	10	566.7084	56	1	800	1859796.545	0.0031	19.0495	19.8615	20.5672	21.1377	0
201	28	22	1	10	346.4887	29	1	800	1859796.545	0.0031	21.1554	21.9675	22.6733	23.0232	0
201	28	23	1	10	292.8147	56	1	800	1859796.545	0.0031	23.0502	23.8616	24.5675	24.8637	0
201	28	24	1	10	377.5869	29	1	800	1859796.545	0.0031	24.8852	25.6971	26.403	26.7837	0
201	28	25	1	10	307.9774	56	1	800	1859796.545	0.0031	26.803	27.6148	28.3207	28.6321	0
201	28	26	1	10	389.2572	29	1	800	1859796.545	0.0031	28.6503	29.462	30.168	30.5605	0
201	28	27	1	10	523.7499	56	1	800	1859796.545	0.0031	30.5798	31.3916	32.0975	32.6247	0
201	28	28	1	10	348.0637	56	1	800	1859796.545	0.0031	32.6505	33.4623	34.1683	34.5198	0
201	28	29	1	10	404.3796	29	0	800	1859796.545	0.0031	34.5448	35.3565	36.0625	36.4701	0
201	28	30	1	10	445.0829	56	1	800	1859796.545	0.0031	0.0275	0.8394	1.557	2.0053	0
201	29	1	1	10	336.2263	56	1	800	1859921.507	0.0028	0.0085	0.8202	1.5262	1.8664	0
201	29	2	1	10	413.4791	56	1	800	1859921.507	0.0028	1.8909	2.7027	3.4087	3.8254	0
201	29	3	1	10	445.2592	29	1	800	1859921.507	0.0028	3.8441	4.6559	5.3618	5.8111	0
201	29	4	1	10	455.4625	29	1	800	1859921.507	0.0028	5.8324	6.6443	7.3505	7.8092	0
201	29	5	1	10	329.9567	56	1	800	1859921.507	0.0028	7.8326	8.6444	9.3503	9.6834	0
201	29	6	1	10	361.0381	56	1	800	1859921.507	0.0028	9.7033	10.5151	11.2212	11.5865	0
201	29	7	1	10	302.4344	56	1	800	1859921.507	0.0028	11.6093	12.4211	13.127	13.4333	0
201	29	8	1	10	342.6611	56	1	800	1859921.507	0.0028	13.4565	14.2684	14.9743	15.3205	0
201	29	9	1	10	310.6875	56	1	800	1859921.507	0.0028	15.339	16.151	16.8568	17.1708	0
201	29	10	1	10	546.5959	29	0	800	1859921.507	0.0028	17.1979	18.0098	18.7158	19.2658	0
201	29	11	1	10	350.6349	56	1	800	1859921.507	0.0028	0.0296	0.8415	1.5591	1.9128	0
201	29	12	1	10	297.2663	56	1	800	1859921.507	0.0028	1.9356	2.7475	3.4534	3.7545	0
201	29	1	2	10	320.5134	56	1	800	1859921.507	0.0028	0.0151	0.827	1.5328	1.8566	3.7637
201	29	2	2	10	308.8354	56	1	800	1859921.507	0.0028	1.874	2.686	3.3917	3.7036	3.7637
201	29	3	2	10	292.2272	56	1	800	1859921.507	0.0028	3.7211	4.5331	5.239	5.5347	3.7637
201	29	4	2	10	386.8537	56	1	800	1859921.507	0.0028	5.5566	6.3685	7.0745	7.4658	3.7637
201	29	5	2	10	353.7116	29	1	800	1859921.507	0.0028	7.4862	8.2981	9.0041	9.373	3.7637
201	29	6	2	10	293.356	56	1	800	1859921.507	0.0028	9.3923	10.204	10.91	11.2068	3.7637
201	29	7	2	10	307.5418	56	1	800	1859921.507	0.0028	11.2277	12.0395	12.7454	13.0564	3.7637
201	29	8	2	10	391.1299	29	1	800	1859921.507	0.0028	13.0748	13.8867	14.5927	14.9871	3.7637
201	29	9	2	10	423.2107	29	1	800	1859921.507	0.0028	15.0164	15.828	16.534	16.9606	3.7637
201	29	10	2	10	306.8031	56	1	800	1859921.507	0.0028	16.981	17.7928	18.499	18.8091	3.7637
201	29	11	2	10	359.0763	29	1	800	1859921.507	0.0028	18.8282	19.64	20.346	20.7084	3.7637
201	29	12	2	10	302.3638	56	1	800	1859921.507	0.0028	20.7343	21.5461	22.2529	22.5595	3.7637
201	30	1	1	10	418.0217	29	1	800	1859984.124	0.0029	0.013	0.8248	1.5308	1.9522	0
201	30	2	1	10	352.9392	29	1	800	1859984.124	0.0029	1.9778	2.7896	3.4955	3.8546	0
201	30	3	1	10	355.2197	29	1	800	1859984.124	0.0029	3.8839	4.6958	5.4017	5.7602	0
201	30	4	1	10	391.7512	29	1	800	1859984.124	0.0029	5.7781	6.59	7.2959	7.691	0
201	30	5	1	10	316.1454	29	1	800	1859984.124	0.0029	7.7076	8.5195	9.2255	9.5459	0
201	30	6	1	10	331.4247	29	1	800	1859984.124	0.0029	9.5666	10.3785	11.0844	11.4189	0
201	30	7	1	10	324.1662	29	1	800	1859984.124	0.0029	11.4374	12.2492	12.9552	13.2828	0
201	30	8	1	10	379.4892	29	1	800	1859984.124	0.0029	13.3095	14.12	14.8259	15.2088	0
201	30	9	1	10	329.4252	29	1	800	1859984.124	0.0029	15.2377	16.0496	16.7555	17.1001	0
201	30	10	1	10	400.4237	29	0	800	1859984.124	0.0029	17.1203	17.932	18.638	19.0417	0
201	30	11	1	10	423.645	29	1	800	1859984.124	0.0029	0.0302	0.8428	1.5596	1.9866	0
201	30	12	1	10	452.969	29	1	800	1859984.124	0.0029	2.0067	2.8185	3.5246	3.9809	0
201	30	13	1	10	376.2398	29	1	800	1859984.124	0.0029	4.0069	4.8188	5.5247	5.9043	0
201	30	14	1	10	508.9868	29	0	800	1859984.124	0.0029	5.9247	6.7365	7.4425	7.9549	0
201	30	15	1	10	494.1421	29	1	800	1859984.124	0.0029	0.0219	0.8339	1.5515	2.0491	0
201	30	16	1	10	481.5607	56	1	800	1859984.124	0.0029	2.0692	2.881	3.587	4.0719	0
201	30	17	1	10	364.6888	56	1	800	1859984.124	0.0029	4.0928	4.9047	5.6106	5.9787	0
201	30	18	1	10	321.5996	29	1	800	1859984.124	0.0029	5.999	6.8107	7.5167	7.8416	0
201	30	19	1	10	289.594	56	1	800	1859984.124	0.0029	7.8696	8.6814	9.3874	9.6803	0
201	30	20	1	10	571.4734	29	1	800	1859984.124	0.0029	9.705	10.5172	11.2228	11.7975	0
201	30	21	1	10	351.5745	56	1	800	1859984.124	0.0029	11.8228	12.6346	13.3406	13.6963	0
201	30	22	1	10	448.315	56	1	800	1859984.124	0.0029	13.7171	14.529	15.2349	15.6868	0
201	30	23	1	10	294.5894	56	1	800	1859984.124	0.0029	15.7055	16.5173	17.2233	17.5211	0
201	30	24	1	10	322.6032	29	1	800	1859984.124	0.0029	17.5409	18.3527	19.0588	19.3849	0
201	30	25	1	10	403.3727	29	1	800	1859984.124	0.0029	19.4116	20.2235	20.9294	21.3362	0
201	30	26	1	10	487.2736	29	1	800	1859984.124	0.0029	21.353	22.1648	22.8707	23.3613	0
201	30	27	1	10	306.9758	56	1	800	1859984.124	0.0029	23.3884	24.2003	24.9062	25.2164	0
201	30	28	1	10	524.7191	56	1	800	1859984.124	0.0029	25.2358	26.0474	26.7534	27.2819	0
201	30	29	1	10	412.4449	29	1	800	1859984.124	0.0029	27.3064	28.1183	28.8242	29.2399	0
201	30	30	1	10	437.9963	56	0	800	1859984.124	0.0029	29.2594	30.0713	30.7772	31.2185	0
201	31	1	1	11	425.9915	56	1	800	1860067.601	0.0032	0.0141	0.8259	1.5319	1.9612	0
201	31	2	1	11	415.104	29	1	800	1860067.601	0.0032	1.9919	2.8026	3.5086	3.9272	0
201	31	3	1	11	445.7295	29	1	800	1860067.601	0.0032	3.9556	4.7675	5.4734	5.9225	0
201	31	4	1	11	390.6615	29	1	800	1860067.601	0.0032	5.944	6.7558	7.4618	7.8564	0
201	31	5	1	11	330.1189	29	1	800	1860067.601	0.0032	7.8853	8.6971	9.4031	9.7366	0
201	31	6	1	11	428.1982	29	1	800	1860067.601	0.0032	9.7561	10.568	11.2738	11.7053	0
201	31	7	1	11	531.1712	29	0	800	1860067.601	0.0032	11.7327	12.5445	13.2505	13.7849	0
201	31	8	1	11	462.3581	29	1	800	1860067.601	0.0032	0.0283	0.8402	1.5579	2.0236	0
201	31	9	1	11	597.4755	29	1	800	1860067.601	0.0032	2.0403	2.852	3.558	4.1598	0
201	31	10	1	11	487.4828	56	1	800	1860067.601	0.0032	4.1815	4.9935	5.6993	6.1902	0
201	31	11	1	11	358.6933	56	1	800	1860067.601	0.0032	6.217	7.0288	7.7348	8.0971	0
201	31	12	1	11	316.3876	56	1	800	1860067.601	0.0032	8.1231	8.9349	9.6408	9.9621	0
201	31	1	2	11	430.1991	29	1	800	1860067.601	0.0032	0.0185	0.8302	1.5361	1.9696	9.9713
201	31	2	2	11	323.7638	29	1	800	1860067.601	0.0032	1.9952	2.8069	3.5129	3.84	9.9713
201	31	3	2	11	404.6818	56	1	800	1860067.601	0.0032	3.8658	4.6777	5.3836	5.7916	9.9713
201	31	4	2	11	411.6461	29	1	800	1860067.601	0.0032	5.8189	6.6307	7.3367	7.7518	9.9713
201	31	5	2	11	347.5724	29	1	800	1860067.601	0.0032	7.7719	8.5839	9.2898	9.6408	9.9713
201	31	6	2	11	320.7953	56	1	800	1860067.601	0.0032	9.6756	10.4898	11.1958	11.52	9.9713
201	31	7	2	11	292.3035	56	1	800	1860067.601	0.0032	11.5369	12.3488	13.0548	13.351	9.9713
201	31	8	2	11	317.8164	56	1	800	1860067.601	0.0032	13.3724	14.1842	14.8902	15.2138	9.9713
201	31	9	2	11	330.1609	29	1	800	1860067.601	0.0032	15.2434	16.0549	16.7609	17.0959	9.9713
201	31	10	2	11	337.9057	29	1	800	1860067.601	0.0032	17.1263	17.9375	18.6433	18.985	9.9713
201	31	11	2	11	358.4596	29	1	800	1860067.601	0.0032	19.0082	19.8199	20.5259	20.8879	9.9713
201	31	12	2	11	324.708	56	1	800	1860067.601	0.0032	20.9141	21.726	22.4319	22.76	9.9713
201	32	1	1	11	365.2747	29	1	800	1860152.089	0.0028	0.011	0.8229	1.5289	1.8976	0
201	32	2	1	11	370.783	56	1	800	1860152.089	0.0028	1.917	2.7288	3.4349	3.8089	0
201	32	3	1	11	346.5608	56	1	800	1860152.089	0.0028	3.836	4.6467	5.3526	5.7026	0
201	32	4	1	11	294.4959	56	1	800	1860152.089	0.0028	5.7291	6.5409	7.247	7.5448	0
201	32	5	1	11	346.5485	29	1	800	1860152.089	0.0028	7.5646	8.3764	9.0823	9.4322	0
201	32	6	1	11	387.7999	29	1	800	1860152.089	0.0028	9.4588	10.2707	10.9766	11.3677	0
201	32	7	1	11	267.4889	56	1	800	1860152.089	0.0028	11.3884	12.2002	12.9062	13.1776	0
201	32	8	1	11	333.0242	29	1	800	1860152.089	0.0028	13.2002	14.0123	14.7181	15.0544	0
201	32	9	1	11	379.3892	56	1	800	1860152.089	0.0028	15.0827	15.8946	16.6005	16.9833	0
201	32	10	1	11	440.9729	29	1	800	1860152.089	0.0028	17.0124	17.8241	18.5301	18.9744	0
201	32	11	1	11	335.995	29	1	800	1860152.089	0.0028	19.0007	19.8126	20.5185	20.8578	0
201	32	12	1	11	547.8717	29	1	800	1860152.089	0.0028	20.8832	21.6951	22.4009	22.9526	0
201	32	13	1	11	346.2288	56	1	800	1860152.089	0.0028	22.9774	23.7893	24.4953	24.8447	0
201	32	14	1	11	380.9945	56	1	800	1860152.089	0.0028	24.8799	25.6953	26.4013	26.7856	0
201	32	15	1	11	403.3699	29	1	800	1860152.089	0.0028	26.8134	27.625	28.3308	28.7375	0
201	32	16	1	11	403.8641	29	1	800	1860152.089	0.0028	28.7544	29.5662	30.2722	30.6792	0
201	32	17	1	11	340.9342	56	1	800	1860152.089	0.0028	30.7075	31.5193	32.2252	32.5697	0
201	32	18	1	11	345.9971	29	1	800	1860152.089	0.0028	32.5899	33.4018	34.1079	34.4573	0
201	32	19	1	11	378.3793	29	1	800	1860152.089	0.0028	34.4843	35.296	36.002	36.3835	0
201	32	20	1	11	467.2561	56	1	800	1860152.089	0.0028	36.406	37.2138	37.9198	38.3907	0
201	32	21	1	11	330.3097	56	1	800	1860152.089	0.0028	38.4139	39.2258	39.9319	40.2657	0
201	32	22	1	11	432.7372	56	1	800	1860152.089	0.0028	40.2846	41.0965	41.8025	42.2391	0
201	32	23	1	11	352.3926	56	1	800	1860152.089	0.0028	42.2614	43.0736	43.7791	44.1347	0
201	32	24	1	11	346.848	56	1	800	1860152.089	0.0028	44.1558	44.9674	45.6734	46.0236	0
201	32	25	1	11	356.5498	56	1	800	1860152.089	0.0028	46.0499	46.8617	47.5676	47.9273	0
201	32	26	1	11	342.4596	56	1	800	1860152.089	0.0028	47.9455	48.7559	49.4619	49.8077	0
201	32	27	1	11	332.4339	56	1	800	1860152.089	0.0028	49.8265	50.6384	51.3446	51.6804	0
201	32	28	1	11	349.3117	56	1	800	1860152.089	0.0028	51.6973	52.5092	53.2151	53.5677	0
201	32	29	1	11	323.7608	29	1	800	1860152.089	0.0028	53.6034	54.4151	55.1211	55.4483	0
201	32	30	1	11	341.7797	29	1	800	1860152.089	0.0028	55.4741	56.2859	56.9919	57.3372	0
201	33	1	1	11	390.1994	56	1	800	1860219.624	0.0031	0.0179	0.8296	1.5357	1.9292	0
201	33	2	1	11	341.3095	29	1	800	1860219.624	0.0031	1.9475	2.7592	3.4652	3.8098	0
201	33	3	1	11	311.0731	56	1	800	1860219.624	0.0031	3.8418	4.6536	5.3594	5.6738	0
201	33	4	1	11	362.259	29	1	800	1860219.624	0.0031	5.7006	6.5126	7.2184	7.5948	0
201	33	5	1	11	283.6596	56	1	800	1860219.624	0.0031	7.6184	8.4303	9.1368	9.4245	0
201	33	6	1	11	294.1217	56	1	800	1860219.624	0.0031	9.4423	10.254	10.9599	11.2574	0
201	33	7	1	11	338.3831	56	1	800	1860219.624	0.0031	11.2775	12.0894	12.7953	13.1379	0
201	33	8	1	11	303.4422	29	1	800	1860219.624	0.0031	13.16	13.9721	14.6779	14.9847	0
201	33	9	1	11	351.8374	29	1	800	1860219.624	0.0031	15.0072	15.819	16.525	16.8809	0
201	33	10	1	11	397.4961	29	1	800	1860219.624	0.0031	16.9015	17.7134	18.4193	18.8202	0
201	33	11	1	11	309.6007	56	1	800	1860219.624	0.0031	18.8428	19.6547	20.3606	20.6736	0
201	33	12	1	11	282.3276	56	1	800	1860219.624	0.0031	20.7018	21.5136	22.22	22.506	0
201	34	1	1	12	407.1891	29	1	800	1860262.097	0.0028	0.0166	0.8284	1.5343	1.9448	0
201	34	2	1	12	334.2233	29	1	800	1860262.097	0.0028	1.9697	2.7815	3.4875	3.825	0
201	34	3	1	12	346.86	29	1	800	1860262.097	0.0028	3.8522	4.664	5.37	5.7201	0
201	34	4	1	12	342.0494	29	1	800	1860262.097	0.0028	5.7464	6.5583	7.2642	7.6095	0
201	34	5	1	12	394.997	29	1	800	1860262.097	0.0028	7.6289	8.4408	9.1473	9.5456	0
201	34	6	1	12	325.6129	56	1	800	1860262.097	0.0028	9.5706	10.382	11.0881	11.417	0
201	34	7	1	12	423.3991	56	1	800	1860262.097	0.0028	11.441	12.2528	12.9588	13.3856	0
201	34	8	1	12	323.8667	56	1	800	1860262.097	0.0028	13.406	14.2177	14.9236	15.251	0
201	34	9	1	12	346.1668	29	1	800	1860262.097	0.0028	15.2768	16.0884	16.7943	17.1439	0
201	34	10	1	12	503.8142	56	1	800	1860262.097	0.0028	17.1708	17.9826	18.6886	19.1962	0
201	34	11	1	12	343.279	56	1	800	1860262.097	0.0028	19.218	20.0299	20.7358	21.0824	0
201	34	12	1	12	340.741	29	1	800	1860262.097	0.0028	21.1005	21.9129	22.6183	22.9625	0
201	34	13	1	12	418.6222	56	0	800	1860262.097	0.0028	22.983	23.7948	24.5007	24.9226	0
201	34	14	1	12	423.108	29	1	800	1860262.097	0.0028	0.0286	0.8404	1.5581	1.9845	0
201	34	15	1	12	345.4934	56	1	800	1860262.097	0.0028	2.0051	2.817	3.5229	3.8718	0
201	34	16	1	12	314.8909	56	1	800	1860262.097	0.0028	3.8995	4.7113	5.4172	5.7353	0
201	34	17	1	12	342.6113	56	1	800	1860262.097	0.0028	5.7584	6.5703	7.2762	7.632	0
201	34	18	1	12	305.1738	56	1	800	1860262.097	0.0028	7.6528	8.4645	9.1705	9.479	0
201	34	19	1	12	436.0552	29	1	800	1860262.097	0.0028	9.4998	10.3118	11.0177	11.4571	0
201	34	20	1	12	341.1741	56	1	800	1860262.097	0.0028	11.4765	12.2883	12.9943	13.341	0
201	34	21	1	12	350.3505	29	1	800	1860262.097	0.0028	13.359	14.1708	14.8769	15.2304	0
201	34	22	1	12	399.8812	29	1	800	1860262.097	0.0028	15.2533	16.0651	16.7711	17.1742	0
201	34	23	1	12	306.5655	56	1	800	1860262.097	0.0028	17.1946	18.0065	18.7123	19.031	0
201	34	24	1	12	416.3129	29	1	800	1860262.097	0.0028	19.0536	19.8653	20.5714	20.9911	0
201	34	25	1	12	356.7073	56	1	800	1860262.097	0.0028	21.0184	21.8302	22.5362	22.8963	0
201	34	26	1	12	363.1215	29	1	800	1860262.097	0.0028	22.9245	23.7363	24.4422	24.8094	0
201	34	27	1	12	327.8673	56	1	800	1860262.097	0.0028	24.8305	25.6423	26.3482	26.6795	0
201	34	28	1	12	313.81	29	1	800	1860262.097	0.0028	26.7012	27.513	28.2191	28.5363	0
201	34	29	1	12	390.0942	29	1	800	1860262.097	0.0028	28.5602	29.3719	30.0779	30.4712	0
201	34	30	1	12	318.5068	29	1	800	1860262.097	0.0028	30.4897	31.3016	32.0075	32.3294	0
201	35	1	1	12	361.9377	56	1	800	1860341.315	0.0028	0.0141	0.826	1.5319	1.8974	0
201	35	2	1	12	311.9672	56	1	800	1860341.315	0.0028	1.9201	2.732	3.4379	3.7533	0
201	35	3	1	12	698.3601	1	0	800	1860341.315	0.0028	3.7792	4.5909	5.2969	5.9982	0
201	35	4	1	12	495.5667	56	1	800	1860341.315	0.0028	0.0286	0.8405	1.5583	2.0572	0
201	35	5	1	12	507.356	29	1	800	1860341.315	0.0028	2.0759	2.8877	3.5937	4.1043	0
201	35	6	1	12	324.5698	56	1	800	1860341.315	0.0028	4.1232	4.9349	5.6409	5.9692	0
201	35	7	1	12	340.7513	56	1	800	1860341.315	0.0028	5.9939	6.8057	7.5116	7.8559	0
201	35	8	1	12	344.8652	56	1	800	1860341.315	0.0028	7.8763	8.6882	9.394	9.7573	0
201	35	9	1	12	435.3588	29	1	800	1860341.315	0.0028	9.7824	10.5941	11.3003	11.7389	0
201	35	10	1	12	534.1697	29	0	800	1860341.315	0.0028	11.759	12.5708	13.2769	13.8144	0
201	35	11	1	12	404.8256	29	1	800	1860341.315	0.0028	0.0287	0.8404	1.5581	1.9663	0
201	35	12	1	12	533.8394	56	0	800	1860341.315	0.0028	1.9935	2.8053	3.5111	4.0483	0
201	35	1	2	12	383.7752	56	1	800	1860341.315	0.0028	0.0155	0.8274	1.5333	1.9221	0.0095
201	35	2	2	12	476.1684	29	1	800	1860341.315	0.0028	1.9569	2.7688	3.4746	3.9542	0.0095
201	35	3	2	12	420.5682	56	1	800	1860341.315	0.0028	3.9805	4.7924	5.4983	5.9223	0.0095
201	35	4	2	12	340.9177	56	1	800	1860341.315	0.0028	5.9453	6.7572	7.4631	7.8207	0.0095
201	35	5	2	12	337.7675	56	1	800	1860341.315	0.0028	7.8397	8.6522	9.3574	9.6986	0.0095
201	35	6	2	12	527.2035	29	1	800	1860341.315	0.0028	9.7221	10.5341	11.2399	11.7709	0.0095
201	35	7	2	12	310.3456	56	1	800	1860341.315	0.0028	11.7928	12.6047	13.3107	13.6244	0.0095
201	35	8	2	12	368.5133	29	1	800	1860341.315	0.0028	13.6519	14.4637	15.1696	15.5414	0.0095
201	35	9	2	12	423.2739	29	1	800	1860341.315	0.0028	15.5697	16.3818	17.0874	17.5143	0.0095
201	35	10	2	12	339.0349	56	1	800	1860341.315	0.0028	17.5345	18.3464	19.0523	19.3959	0.0095
201	35	11	2	12	370.6057	56	1	800	1860341.315	0.0028	19.417	20.2289	20.9347	21.3123	0.0095
201	35	12	2	12	311.324	56	1	800	1860341.315	0.0028	21.3348	22.1466	22.8527	23.1673	0.0095
201	36	1	1	12	385.5161	29	1	800	1860421.392	0.0029	0.0198	0.8315	1.5374	1.9263	0
201	36	2	1	12	336.3589	56	1	800	1860421.392	0.0029	1.9493	2.7611	3.4671	3.8068	0
201	36	3	1	12	453.6551	56	1	800	1860421.392	0.0029	3.8318	4.6436	5.3496	5.8065	0
201	36	4	1	12	299.5857	56	1	800	1860421.392	0.0029	5.8319	6.6438	7.3497	7.6526	0
201	36	5	1	12	267.9762	56	1	800	1860421.392	0.0029	7.6791	8.4909	9.1969	9.4685	0
201	36	6	1	12	577.8673	29	1	800	1860421.392	0.0029	9.491	10.3028	11.0088	11.5901	0
201	36	7	1	12	334.5807	56	1	800	1860421.392	0.0029	11.6207	12.4325	13.1384	13.4765	0
201	36	8	1	12	571.7621	29	1	800	1860421.392	0.0029	13.503	14.315	15.0209	15.596	0
201	36	9	1	12	493.6464	29	1	800	1860421.392	0.0029	15.6209	16.4328	17.1387	17.6355	0
201	36	10	1	12	324.3755	56	1	800	1860421.392	0.0029	17.6564	18.4683	19.1742	19.5019	0
201	36	11	1	12	373.5441	29	1	800	1860421.392	0.0029	19.5271	20.339	21.0449	21.4227	0
201	36	12	1	12	454.7975	56	1	800	1860421.392	0.0029	21.4449	22.2567	22.9626	23.421	0
201	36	13	1	12	432.4135	29	1	800	1860421.392	0.0029	23.445	24.257	24.9628	25.3991	0
201	36	14	1	12	325.7576	29	1	800	1860421.392	0.0029	25.4216	26.2335	26.9394	27.2685	0
201	36	15	1	12	496.1988	29	1	800	1860421.392	0.0029	27.2924	28.1043	28.8103	29.31	0
201	36	16	1	12	373.6972	56	1	800	1860421.392	0.0029	29.3278	30.1396	30.8457	31.2228	0
201	36	17	1	12	310.3685	56	1	800	1860421.392	0.0029	31.2457	32.0574	32.7634	33.0772	0
201	36	18	1	12	436.8114	56	1	800	1860421.392	0.0029	33.1046	33.9165	34.6224	35.0626	0
201	36	19	1	12	534.8932	29	1	800	1860421.392	0.0029	35.0811	35.8931	36.6108	37.1488	0
201	36	20	1	12	319.3137	56	1	800	1860421.392	0.0029	37.1756	37.9874	38.6933	39.0159	0
201	36	21	1	12	369.6339	29	1	800	1860421.392	0.0029	39.0344	39.8463	40.5522	40.9252	0
201	36	22	1	12	323.8472	56	1	800	1860421.392	0.0029	40.9522	41.7641	42.47	42.7972	0
201	36	23	1	12	360.6138	29	1	800	1860421.392	0.0029	42.8229	43.6348	44.3408	44.7047	0
201	36	24	1	12	427.0787	29	1	800	1860421.392	0.0029	44.729	45.5408	46.2467	46.6771	0
201	36	25	1	12	285.4241	56	1	800	1860421.392	0.0029	46.6939	47.5057	48.2117	48.5005	0
201	36	26	1	12	473.1994	29	1	800	1860421.392	0.0029	48.5293	49.3411	50.0471	50.5323	0
201	36	27	1	12	380.9927	56	1	800	1860421.392	0.0029	50.553	51.3647	52.0707	52.4551	0
201	36	28	1	12	362.4912	29	1	800	1860421.392	0.0029	52.4825	53.2943	54.0003	54.3662	0
201	36	29	1	12	376.5855	29	1	800	1860421.392	0.0029	54.3885	55.2004	55.9062	56.2876	0
201	36	30	1	12	421.6383	29	1	800	1860421.392	0.0029	56.3182	57.1299	57.836	58.2614	0
201	37	1	1	13	356.903	29	1	800	1860488.456	0.0028	0.0113	0.8232	1.5292	1.8895	0
201	37	2	1	13	336.6922	56	1	800	1860488.456	0.0028	1.9174	2.7292	3.4352	3.7751	0
201	37	3	1	13	443.035	29	1	800	1860488.456	0.0028	3.7999	4.6118	5.3177	5.7647	0
201	37	4	1	13	395.1911	29	1	800	1860488.456	0.0028	5.7883	6.6001	7.3061	7.7046	0
201	37	5	1	13	341.2384	29	1	800	1860488.456	0.0028	7.7297	8.5415	9.2474	9.5919	0
201	37	6	1	13	427.1102	29	1	800	1860488.456	0.0028	9.6121	10.424	11.1299	11.5605	0
201	37	7	1	13	370.7464	56	1	800	1860488.456	0.0028	11.5887	12.4006	13.1066	13.4808	0
201	37	8	1	13	332.5516	56	1	800	1860488.456	0.0028	13.5065	14.3184	15.0242	15.3601	0
201	37	9	1	13	358.9598	56	1	800	1860488.456	0.0028	15.3773	16.1891	16.895	17.2579	0
201	37	10	1	13	372.7572	56	1	800	1860488.456	0.0028	17.2833	18.0951	18.8011	19.1778	0
201	37	11	1	13	294.1132	56	1	800	1860488.456	0.0028	19.2011	20.0129	20.7189	21.0165	0
201	37	12	1	13	337.676	56	1	800	1860488.456	0.0028	21.0365	21.8484	22.5543	22.8957	0
201	38	1	1	13	454.6731	29	1	800	1860525.988	0.0031	0.0151	0.8269	1.5329	1.991	0
201	38	2	1	13	322.5663	29	1	800	1860525.988	0.0031	2.027	2.8389	3.5448	3.8708	0
201	38	3	1	13	331.4293	56	1	800	1860525.988	0.0031	3.8978	4.7097	5.4156	5.7504	0
201	38	4	1	13	344.1889	56	1	800	1860525.988	0.0031	5.7685	6.5803	7.2863	7.6339	0
201	38	5	1	13	346.3275	56	1	800	1860525.988	0.0031	7.6509	8.4628	9.1688	9.5183	0
201	38	6	1	13	334.6461	56	1	800	1860525.988	0.0031	9.5452	10.3572	11.063	11.4009	0
201	38	7	1	13	354.0787	56	1	800	1860525.988	0.0031	11.4278	12.2396	12.9456	13.303	0
201	38	8	1	13	275.9102	56	1	800	1860525.988	0.0031	13.322	14.1339	14.8398	15.1191	0
201	38	9	1	13	398.3479	29	1	800	1860525.988	0.0031	15.1457	15.9575	16.6634	17.0669	0
201	38	10	1	13	382.7992	29	1	800	1860525.988	0.0031	17.0871	17.8989	18.6048	18.991	0
201	38	11	1	13	325.4336	29	1	800	1860525.988	0.0031	19.0177	19.8285	20.5343	20.8632	0
201	38	12	1	13	325.723	56	1	800	1860525.988	0.0031	20.8873	21.6991	22.405	22.7341	0
201	38	13	1	13	376.7327	29	1	800	1860525.988	0.0031	22.7586	23.5698	24.2758	24.656	0
201	38	14	1	13	336.3591	29	1	800	1860525.988	0.0031	24.6758	25.4877	26.1936	26.5334	0
201	38	15	1	13	376.5608	29	1	800	1860525.988	0.0031	26.5583	27.3702	28.0761	28.456	0
201	38	16	1	13	470.404	29	1	800	1860525.988	0.0031	28.4761	29.2885	29.9939	30.4679	0
201	38	17	1	13	397.2669	56	1	800	1860525.988	0.0031	30.4881	31.2999	32.0058	32.4064	0
201	38	18	1	13	329.5524	29	1	800	1860525.988	0.0031	32.4294	33.2412	33.9472	34.2806	0
201	38	19	1	13	474.7817	29	1	800	1860525.988	0.0031	34.3	35.1119	35.8181	36.2967	0
201	38	20	1	13	320.5412	29	1	800	1860525.988	0.0031	36.3238	37.1356	37.8416	38.1655	0
201	38	21	1	13	351.3295	56	1	800	1860525.988	0.0031	38.1827	38.9946	39.7006	40.0563	0
201	38	22	1	13	439.0593	56	1	800	1860525.988	0.0031	40.077	40.8888	41.5948	42.037	0
201	38	23	1	13	283.0772	56	1	800	1860525.988	0.0031	42.0654	42.8772	43.5832	43.8696	0
201	38	24	1	13	341.0553	29	1	800	1860525.988	0.0031	43.889	44.7009	45.4068	45.7514	0
201	38	25	1	13	462.028	56	1	800	1860525.988	0.0031	45.7716	46.5834	47.2894	47.7548	0
201	38	26	1	13	351.0111	56	1	800	1860525.988	0.0031	47.7834	48.5953	49.3014	49.6561	0
201	38	27	1	13	376.4029	29	1	800	1860525.988	0.0031	49.6778	50.4896	51.1955	51.5754	0
201	38	28	1	13	352.4474	56	1	800	1860525.988	0.0031	51.5955	52.4074	53.1133	53.4759	0
201	38	29	1	13	431.3093	29	1	800	1860525.988	0.0031	53.5016	54.3134	55.0194	55.454	0
201	38	30	1	13	359.844	56	1	800	1860525.988	0.0031	55.4782	56.2901	56.9959	57.3593	0
201	39	1	1	13	410.5976	56	1	800	1860598.217	0.0029	0.0157	0.8275	1.5336	1.9482	0
201	39	2	1	13	262.8979	56	1	800	1860598.217	0.0029	1.9688	2.7806	3.4865	3.7528	0
201	39	3	1	13	355.5036	56	1	800	1860598.217	0.0029	3.7806	4.5925	5.2984	5.6573	0
201	39	4	1	13	469.7324	29	1	800	1860598.217	0.0029	5.6752	6.4868	7.1926	7.6657	0
201	39	5	1	13	272.8946	56	1	800	1860598.217	0.0029	7.6868	8.4986	9.2046	9.481	0
201	39	6	1	13	414.1623	29	1	800	1860598.217	0.0029	9.4987	10.3106	11.0165	11.434	0
201	39	7	1	13	347.9576	56	0	800	1860598.217	0.0029	11.4518	12.2636	12.9696	13.3207	0
201	39	8	1	13	515.2568	29	1	800	1860598.217	0.0029	0.0271	0.8391	1.5566	2.0751	0
201	39	9	1	13	589.4623	56	1	800	1860598.217	0.0029	2.0978	2.9096	3.6156	4.2084	0
201	39	10	1	13	374.2556	56	1	800	1860598.217	0.0029	4.2273	5.0393	5.7452	6.1235	0
201	39	11	1	13	567.7449	29	1	800	1860598.217	0.0029	6.1452	6.9571	7.6629	8.234	0
201	39	12	1	13	327.629	29	1	800	1860598.217	0.0029	8.2512	9.0631	9.769	10.1001	0
201	39	1	2	13	366.6643	29	1	800	1860598.217	0.0029	0.0094	0.8213	1.5271	1.8971	10.1092
201	39	2	2	13	344.9045	29	1	800	1860598.217	0.0029	1.9179	2.7273	3.4332	3.7812	10.1092
201	39	3	2	13	434.8248	29	1	800	1860598.217	0.0029	3.8096	4.6215	5.3274	5.7655	10.1092
201	39	4	2	13	298.2363	56	1	800	1860598.217	0.0029	5.7864	6.5981	7.304	7.6053	10.1092
201	39	5	2	13	346.7975	56	1	800	1860598.217	0.0029	7.6335	8.4453	9.1513	9.5015	10.1092
201	39	6	2	13	348.1353	29	1	800	1860598.217	0.0029	9.5277	10.3396	11.0455	11.3972	10.1092
201	39	7	2	13	326.9168	29	1	800	1860598.217	0.0029	11.422	12.2339	12.9398	13.2706	10.1092
201	39	8	2	13	372.1409	29	1	800	1860598.217	0.0029	13.3044	14.1164	14.8223	15.1978	10.1092
201	39	9	2	13	397.9937	29	1	800	1860598.217	0.0029	15.2223	16.0342	16.7401	17.1415	10.1092
201	39	10	2	13	329.7679	29	1	800	1860598.217	0.0029	17.1636	17.9755	18.6813	19.0145	10.1092
201	39	11	2	13	329.3475	29	1	800	1860598.217	0.0029	19.0343	19.8461	20.5521	20.8846	10.1092
201	39	12	2	13	346.8386	56	1	800	1860598.217	0.0029	20.9051	21.7169	22.4228	22.7728	10.1092
201	40	1	1	14	428.5142	29	1	800	1860662.269	0.0028	0.0171	0.829	1.5349	1.9669	0
201	40	2	1	14	286.9096	56	1	800	1860662.269	0.0028	1.9937	2.8056	3.5114	3.8032	0
201	40	3	1	14	345.3753	29	1	800	1860662.269	0.0028	3.8292	4.641	5.347	5.6958	0
201	40	4	1	14	442.9402	56	1	800	1860662.269	0.0028	5.7234	6.5352	7.2412	7.6875	0
201	40	5	1	14	332.4462	29	1	800	1860662.269	0.0028	7.7119	8.5237	9.2296	9.5654	0
201	40	6	1	14	337.804	56	1	800	1860662.269	0.0028	9.5943	10.4061	11.1121	11.4616	0
201	40	7	1	14	428.3414	29	1	800	1860662.269	0.0028	11.4886	12.3005	13.0063	13.4378	0
201	40	8	1	14	396.7588	56	0	800	1860662.269	0.0028	13.4652	14.2771	14.983	15.383	0
201	40	9	1	14	360.1917	29	0	800	1860662.269	0.0028	0.0415	0.8534	1.5712	1.9347	0
201	40	10	1	14	385.1099	56	1	800	1860662.269	0.0028	0.0273	0.8393	1.5569	1.9454	0
201	40	11	1	14	366.4963	29	1	800	1860662.269	0.0028	1.969	2.7805	3.4865	3.8564	0
201	40	12	1	14	284.351	56	1	800	1860662.269	0.0028	3.8747	4.6865	5.3925	5.6802	0
201	40	13	1	14	421.4315	29	1	800	1860662.269	0.0028	5.6983	6.5103	7.2161	7.6409	0
201	40	14	1	14	346.3755	56	1	800	1860662.269	0.0028	7.6632	8.475	9.1809	9.5306	0
201	40	15	1	14	535.2067	29	1	800	1860662.269	0.0028	9.5574	10.3693	11.0753	11.6138	0
201	40	16	1	14	336.9741	29	1	800	1860662.269	0.0028	11.6401	12.4518	13.1578	13.4981	0
201	40	17	1	14	285.9742	56	1	800	1860662.269	0.0028	13.5224	14.3343	15.0404	15.3296	0
201	40	18	1	14	357.8472	56	1	800	1860662.269	0.0028	15.358	16.1701	16.8756	17.2383	0
201	40	19	1	14	345.0032	29	1	800	1860662.269	0.0028	17.2639	18.0758	18.7817	19.1301	0
201	40	20	1	14	289.9086	56	1	800	1860662.269	0.0028	19.1582	19.9701	20.6762	20.9706	0
201	40	21	1	14	375.9384	29	1	800	1860662.269	0.0028	20.9936	21.8055	22.5116	22.8915	0
201	40	22	1	14	318.7936	29	1	800	1860662.269	0.0028	22.9114	23.7232	24.4293	24.7515	0
201	40	23	1	14	372.5718	56	1	800	1860662.269	0.0028	24.7704	25.5822	26.2882	26.6644	0
201	40	24	1	14	336.9713	56	1	800	1860662.269	0.0028	26.6881	27.5	28.206	28.5463	0
201	40	25	1	14	374.3356	29	1	800	1860662.269	0.0028	28.5708	29.3825	30.0885	30.4672	0
201	40	26	1	14	472.4545	29	1	800	1860662.269	0.0028	30.4885	31.3004	32.0063	32.4823	0
201	40	27	1	14	373.1168	29	1	800	1860662.269	0.0028	32.5004	33.3123	34.0182	34.3946	0
201	40	28	1	14	327.5243	56	1	800	1860662.269	0.0028	34.4183	35.2307	35.936	36.2677	0
201	40	29	1	14	311.4624	56	1	800	1860662.269	0.0028	36.289	37.1009	37.8067	38.1215	0
201	40	30	1	14	427.6403	29	1	800	1860662.269	0.0028	38.1479	38.9598	39.6656	40.0966	0
201	41	1	1	14	383.4894	29	1	800	1860735.251	0.0028	0.0103	0.8221	1.528	1.9148	0
201	41	2	1	14	300.1783	56	1	800	1860735.251	0.0028	1.9398	2.7517	3.4576	3.7612	0
201	41	3	1	14	332.0792	56	1	800	1860735.251	0.0028	3.787	4.5989	5.3048	5.6402	0
201	41	4	1	14	333.5755	56	0	800	1860735.251	0.0028	5.6578	6.4696	7.1754	7.5122	0
201	41	5	1	14	377.884	56	1	800	1860735.251	0.0028	0.026	0.8379	1.5557	1.9366	0
201	41	6	1	14	609.8566	29	1	800	1860735.251	0.0028	1.9587	2.7674	3.4734	4.087	0
201	41	7	1	14	331.197	29	1	800	1860735.251	0.0028	4.1086	4.9206	5.6265	5.9611	0
201	41	8	1	14	339.0847	29	1	800	1860735.251	0.0028	5.9794	6.7913	7.4972	7.8402	0
201	41	9	1	14	306.6337	56	1	800	1860735.251	0.0028	7.8619	8.6738	9.3803	9.6903	0
201	41	10	1	14	376.5205	56	1	800	1860735.251	0.0028	9.7093	10.521	11.2273	11.6073	0
201	41	11	1	14	472.8723	29	1	800	1860735.251	0.0028	11.6269	12.4387	13.1447	13.6342	0
201	41	12	1	14	488.8078	29	1	800	1860735.251	0.0028	13.6624	14.4742	15.1802	15.6725	0
201	41	1	2	14	371.9072	29	1	800	1860735.251	0.0028	0.0119	0.8236	1.5297	1.905	15.6826
201	41	2	2	14	414.0752	29	1	800	1860735.251	0.0028	1.9296	2.7415	3.4475	3.8649	15.6826
201	41	3	2	14	401.4394	29	1	800	1860735.251	0.0028	3.8827	4.6946	5.4005	5.8059	15.6826
201	41	4	2	14	397.7638	56	1	800	1860735.251	0.0028	5.824	6.6358	7.3418	7.7435	15.6826
201	41	5	2	14	281.4897	56	1	800	1860735.251	0.0028	7.7654	8.5772	9.2832	9.5679	15.6826
201	41	6	2	14	404.5698	29	1	800	1860735.251	0.0028	9.589	10.4009	11.1068	11.5168	15.6826
201	41	7	2	14	360.1964	29	1	800	1860735.251	0.0028	11.5421	12.3539	13.0599	13.4236	15.6826
201	41	8	2	14	326.2147	56	1	800	1860735.251	0.0028	13.4482	14.2601	14.9659	15.2961	15.6826
201	41	9	2	14	318.3796	29	1	800	1860735.251	0.0028	15.3189	16.1307	16.8366	17.1585	15.6826
201	41	10	2	14	360.5804	56	1	800	1860735.251	0.0028	17.1898	18.0014	18.7075	19.072	15.6826
201	41	11	2	14	479.3494	56	1	800	1860735.251	0.0028	19.0956	19.9077	20.6134	21.0961	15.6826
201	41	12	2	14	463.5676	56	0	800	1860735.251	0.0028	21.1193	21.9312	22.6371	23.1041	15.6826
201	41	1	3	14	324.0841	56	1	800	1860735.251	0.0028	0.0172	0.829	1.5349	1.8718	0.0094
201	41	2	3	14	323.8214	29	1	800	1860735.251	0.0028	1.8997	2.7115	3.4176	3.7446	0.0094
201	41	3	3	14	299.713	56	1	800	1860735.251	0.0028	3.7704	4.5822	5.2882	5.5915	0.0094
201	41	4	3	14	348.203	29	1	800	1860735.251	0.0028	5.6175	6.4294	7.1354	7.4869	0.0094
201	41	5	3	14	335.1103	56	1	800	1860735.251	0.0028	7.5119	8.3236	9.0296	9.3682	0.0094
201	41	6	3	14	322.402	56	1	800	1860735.251	0.0028	9.3943	10.2062	10.9121	11.2379	0.0094
201	41	7	3	14	284.3117	56	1	800	1860735.251	0.0028	11.2651	12.0769	12.7829	13.0778	0.0094
201	41	8	3	14	322.8062	29	1	800	1860735.251	0.0028	13.1006	13.9124	14.6183	14.9445	0.0094
201	41	9	3	14	370.6436	56	1	800	1860735.251	0.0028	14.9712	15.783	16.489	16.8629	0.0094
201	41	10	3	14	331.5005	56	1	800	1860735.251	0.0028	16.889	17.7009	18.4067	18.742	0.0094
201	41	11	3	14	359.4398	29	1	800	1860735.251	0.0028	18.7598	19.5716	20.2775	20.6408	0.0094
201	41	12	3	14	410.615	29	1	800	1860735.251	0.0028	20.6658	21.4777	22.1836	22.5992	0.0094
201	42	1	1	14	442.9772	29	1	800	1860828.071	0.0049	0.0149	0.8266	1.5326	1.9788	0
201	42	2	1	14	347.6807	29	1	800	1860828.071	0.0049	2.0032	2.815	3.521	3.872	0
201	42	3	1	14	340.5344	56	1	800	1860828.071	0.0049	3.8974	4.7093	5.4153	5.759	0
201	42	4	1	14	353.3444	29	1	800	1860828.071	0.0049	5.78	6.5919	7.2977	7.6668	0
201	42	5	1	14	425.7312	56	0	800	1860828.071	0.0049	7.6862	8.4979	9.2039	9.6331	0
201	42	6	1	14	422.2569	29	1	800	1860828.071	0.0049	0.0331	0.8449	1.5625	1.9882	0
201	42	7	1	14	354.5628	56	1	800	1860828.071	0.0049	2.0096	2.8215	3.5275	3.8854	0
201	42	8	1	14	386.1649	29	1	800	1860828.071	0.0049	3.904	4.7157	5.4217	5.8113	0
201	42	9	1	14	401.2566	56	1	800	1860828.071	0.0049	5.8335	6.6453	7.3513	7.7559	0
201	42	10	1	14	353.6392	29	1	800	1860828.071	0.0049	7.775	8.5867	9.2927	9.6498	0
201	42	11	1	14	317.2679	29	1	800	1860828.071	0.0049	9.669	10.4809	11.1869	11.5077	0
201	42	12	1	14	378.8738	29	1	800	1860828.071	0.0049	11.5281	12.3399	13.0459	13.428	0
201	42	13	1	14	332.1441	29	1	800	1860828.071	0.0049	13.4458	14.2576	14.9636	15.2991	0
201	42	14	1	14	353.3807	29	1	800	1860828.071	0.0049	15.3166	16.1284	16.8343	17.191	0
201	42	15	1	14	440.152	29	1	800	1860828.071	0.0049	17.2108	18.0226	18.7286	19.1722	0
201	42	16	1	14	281.6791	56	1	800	1860828.071	0.0049	19.1992	20.0111	20.717	21.002	0
201	42	17	1	14	341.2309	29	1	800	1860828.071	0.0049	21.0228	21.8347	22.5406	22.8851	0
201	42	18	1	14	399.1389	56	1	800	1860828.071	0.0049	22.9054	23.7172	24.4232	24.8261	0
201	42	19	1	14	339.8039	56	1	800	1860828.071	0.0049	24.8468	25.6586	26.3646	26.7079	0
201	42	20	1	14	487.7191	29	1	800	1860828.071	0.0049	26.7292	27.541	28.247	28.7383	0
201	42	21	1	14	356.8288	56	1	800	1860828.071	0.0049	28.7646	29.5765	30.2825	30.6428	0
201	42	22	1	14	335.9396	29	1	800	1860828.071	0.0049	30.6709	31.4825	32.2003	32.5396	0
201	42	23	1	14	325.32	56	1	800	1860828.071	0.0049	32.5651	33.3768	34.0827	34.4115	0
201	42	24	1	14	419.74	29	1	800	1860828.071	0.0049	34.4357	35.2474	35.9535	36.3774	0
201	42	25	1	14	329.0147	56	1	800	1860828.071	0.0049	36.4005	37.2123	37.9183	38.2508	0
201	42	26	1	14	362.6363	56	1	800	1860828.071	0.0049	38.2712	39.0831	39.789	40.155	0
201	42	27	1	14	353.148	29	1	800	1860828.071	0.0049	40.1773	40.9892	41.6952	42.0603	0
201	42	28	1	14	342.7904	56	1	800	1860828.071	0.0049	42.0834	42.8951	43.601	43.9471	0
201	42	29	1	14	357.1016	56	1	800	1860828.071	0.0049	43.9658	44.7777	45.4836	45.8445	0
201	42	30	1	14	378.7284	56	1	800	1860828.071	0.0049	45.8718	46.6837	47.3895	47.7714	0
201	43	1	1	15	535.622	29	1	800	1860948.479	0.0047	0.0172	0.829	1.535	2.0738	0
201	43	2	1	15	294.2216	56	1	800	1860948.479	0.0047	2.0997	2.9116	3.6176	3.9151	0
201	43	3	1	15	403.853	29	1	800	1860948.479	0.0047	3.9351	4.747	5.4528	5.8604	0
201	43	4	1	15	344.4228	29	1	800	1860948.479	0.0047	5.889	6.7001	7.406	7.7539	0
201	43	5	1	15	326.6577	29	1	800	1860948.479	0.0047	7.7709	8.5826	9.2884	9.6195	0
201	43	6	1	15	317.9033	56	1	800	1860948.479	0.0047	9.6415	10.4533	11.1593	11.4807	0
201	43	7	1	15	315.8684	29	1	800	1860948.479	0.0047	11.5004	12.3122	13.0182	13.3375	0
201	43	8	1	15	299.0076	56	1	800	1860948.479	0.0047	13.3593	14.1713	14.8772	15.1796	0
201	43	9	1	15	338.7836	56	1	800	1860948.479	0.0047	15.2066	16.0184	16.7245	17.0667	0
201	43	10	1	15	376.3486	29	1	800	1860948.479	0.0047	17.0891	17.9009	18.6068	18.9868	0
201	43	11	1	15	480.7828	29	0	800	1860948.479	0.0047	19.0069	19.8187	20.5246	21.0085	0
201	43	12	1	15	323.8181	56	1	800	1860948.479	0.0047	0.0263	0.8383	1.5558	1.8839	0
201	43	1	2	15	412.0367	29	1	800	1860948.479	0.0047	0.018	0.8298	1.5358	1.9512	1.8941
201	43	2	2	15	316.2271	56	1	800	1860948.479	0.0047	1.971	2.7829	3.489	3.8092	1.8941
201	43	3	2	15	313.4605	56	1	800	1860948.479	0.0047	3.8301	4.6419	5.3479	5.6648	1.8941
201	43	4	2	15	327.1783	29	1	800	1860948.479	0.0047	5.689	6.5011	7.2068	7.5384	1.8941
201	43	5	2	15	471.2763	56	1	800	1860948.479	0.0047	7.5598	8.3717	9.0775	9.5523	1.8941
201	43	6	2	15	566.8753	56	1	800	1860948.479	0.0047	9.5716	10.3834	11.0895	11.66	1.8941
201	43	7	2	15	329.1674	29	1	800	1860948.479	0.0047	11.6777	12.4895	13.1955	13.5282	1.8941
201	43	8	2	15	483.3773	56	1	800	1860948.479	0.0047	13.5485	14.3603	15.0662	15.5529	1.8941
201	43	9	2	15	698.5681	1	0	800	1860948.479	0.0047	15.5722	16.3841	17.0898	17.7913	1.8941
201	43	10	2	15	316.2634	56	1	800	1860948.479	0.0047	0.0272	0.839	1.5569	1.8787	1.8941
201	43	11	2	15	277.1822	56	1	800	1860948.479	0.0047	1.898	2.7098	3.4157	3.6967	1.8941
201	43	12	2	15	478.0276	56	1	800	1860948.479	0.0047	3.7217	4.5335	5.2394	5.7208	1.8941
201	43	1	3	15	454.4009	29	1	800	1860948.479	0.0047	0.0115	0.8234	1.5294	1.9872	5.7318
201	43	2	3	15	287.7468	56	1	800	1860948.479	0.0047	2.0117	2.8235	3.5294	3.8212	5.7318
201	43	3	3	15	356.506	56	1	800	1860948.479	0.0047	3.8472	4.659	5.3649	5.7247	5.7318
201	43	4	3	15	407.7584	29	1	800	1860948.479	0.0047	5.7532	6.565	7.271	7.6827	5.7318
201	43	5	3	15	510.1378	29	0	800	1860948.479	0.0047	7.7065	8.5181	9.2247	9.7389	5.7318
201	43	6	3	15	352.0785	56	1	800	1860948.479	0.0047	0.0256	0.8375	1.5552	1.9106	5.7318
201	43	7	3	15	626.4568	56	0	800	1860948.479	0.0047	1.9316	2.7435	3.4495	4.0793	5.7318
201	43	8	3	15	333.646	56	1	800	1860948.479	0.0047	0.0302	0.8421	1.5599	1.898	5.7318
201	43	9	3	15	455.1521	29	1	800	1860948.479	0.0047	1.9277	2.7364	3.4424	3.9009	5.7318
201	43	10	3	15	700.1376	1	0	800	1860948.479	0.0047	3.9247	4.7365	5.4425	6.1456	5.7318
201	43	11	3	15	198.1177	56	1	800	1860948.479	0.0047	0.0286	0.8394	1.557	1.7585	5.7318
201	43	12	3	15	473.9801	56	1	800	1860948.479	0.0047	1.7806	2.5923	3.2983	3.7753	5.7318
201	43	1	4	15	432.4169	56	0	800	1860948.479	0.0047	0.0137	0.8254	1.5314	1.9676	3.7855
201	43	2	4	15	299.8689	56	1	800	1860948.479	0.0047	0.0333	0.8453	1.5628	1.8662	3.7855
201	43	3	4	15	355.9637	29	1	800	1860948.479	0.0047	1.8924	2.7042	3.4101	3.7709	3.7855
201	43	4	4	15	530.2328	56	1	800	1860948.479	0.0047	3.7984	4.6102	5.3162	5.8498	3.7855
201	43	5	4	15	294.6837	56	1	800	1860948.479	0.0047	5.8808	6.6927	7.3987	7.6966	3.7855
201	43	6	4	15	364.4279	56	1	800	1860948.479	0.0047	7.7163	8.5281	9.2342	9.6019	3.7855
201	43	7	4	15	305.9933	56	1	800	1860948.479	0.0047	9.6223	10.4342	11.1403	11.4498	3.7855
201	43	8	4	15	394.0902	56	1	800	1860948.479	0.0047	11.4696	12.2814	12.9873	13.3847	3.7855
201	43	9	4	15	486.3372	29	1	800	1860948.479	0.0047	13.4109	14.2227	14.9286	15.4184	3.7855
201	43	10	4	15	360.0612	29	1	800	1860948.479	0.0047	15.4463	16.2581	16.9641	17.3277	3.7855
201	43	11	4	15	343.5311	56	1	800	1860948.479	0.0047	17.3523	18.1642	18.8701	19.2171	3.7855
201	43	12	4	15	325.795	56	1	800	1860948.479	0.0047	19.2349	20.0466	20.7526	21.0832	3.7855
201	43	1	5	15	538.2094	29	1	800	1860948.479	0.0047	0.0168	0.8285	1.5345	2.0769	21.0924
201	43	2	5	15	277.8489	56	1	800	1860948.479	0.0047	2.0993	2.9111	3.6169	3.8981	21.0924
201	43	3	5	15	332.2027	29	1	800	1860948.479	0.0047	3.9229	4.7348	5.4406	5.776	21.0924
201	43	4	5	15	535.2825	29	0	800	1860948.479	0.0047	5.7937	6.6057	7.3113	7.8498	21.0924
201	43	5	5	15	235.0425	56	1	800	1860948.479	0.0047	0.0301	0.842	1.5597	1.8011	21.0924
201	43	6	5	15	600.4835	29	0	800	1860948.479	0.0047	1.8303	2.6426	3.348	3.9518	21.0924
201	43	7	5	15	501.627	29	0	800	1860948.479	0.0047	0.0323	0.8441	1.5618	2.0668	21.0924
201	43	8	5	15	430.5224	56	1	800	1860948.479	0.0047	0.0353	0.8469	1.5645	1.9984	21.0924
201	43	9	5	15	487.8256	56	0	800	1860948.479	0.0047	2.0234	2.8355	3.5414	4.0326	21.0924
201	43	10	5	15	459.0769	29	1	800	1860948.479	0.0047	0.0244	0.8363	1.554	2.0165	21.0924
201	43	11	5	15	236.998	56	1	800	1860948.479	0.0047	2.0363	2.8481	3.5541	3.7946	21.0924
201	43	12	5	15	308.0963	56	1	800	1860948.479	0.0047	3.8129	4.6252	5.3307	5.642	21.0924
201	43	1	6	15	480.2556	56	1	800	1860948.479	0.0047	0.0159	0.8258	1.5318	2.0154	5.6519
201	43	2	6	15	305.9489	56	1	800	1860948.479	0.0047	2.0376	2.8495	3.5555	3.8648	5.6519
