SUBID	BLOCK	TRIAL	REP	RUNID	RT	RESP	ACC	RSIJIT	EV_START	EV_BLOCK	EV_TRIAL	EV_RETRIEVAL	EV_PROBE	EV_RESP	EV_BLEND
202	1	1	1	1	699.7547	1	0	800	10387.3264	0.0064	0.0993	0.911	1.6307	2.3393	0
202	1	2	1	1	663.2604	56	0	800	10387.3264	0.0064	0.0479	0.8609	1.5807	2.2476	0
202	1	3	1	1	702.5525	1	0	800	10387.3264	0.0064	0.0291	0.8422	1.5619	2.2678	0
202	1	4	1	1	697.6007	1	0	800	10387.3264	0.0064	0.0306	0.8437	1.5634	2.2644	0
202	1	5	1	1	700.2209	1	0	800	10387.3264	0.0064	0.0363	0.8488	1.5686	2.2722	0
202	1	6	1	1	670.3501	56	1	800	10387.3264	0.0064	0.0215	0.8346	1.5543	2.2284	0
202	1	7	1	1	697.854	1	0	800	10387.3264	0.0064	2.2475	3.0605	3.7671	4.4682	0
202	1	8	1	1	527.6638	56	1	800	10387.3264	0.0064	0.0326	0.8457	1.5654	2.0967	0
202	1	9	1	1	685.5398	29	0	800	10387.3264	0.0064	2.1252	2.9386	3.6449	4.334	0
202	1	10	1	1	701.7287	1	0	800	10387.3264	0.0064	0.0271	0.8401	1.5598	2.265	0
202	1	11	1	1	347.2076	29	0	800	10387.3264	0.0064	0.0318	0.8448	1.5646	1.9154	0
202	1	12	1	1	701.3577	1	0	800	10387.3264	0.0064	0.0277	0.8408	1.5606	2.2657	0
202	1	1	2	1	613.6591	56	1	800	10387.3264	0.0064	0.0127	0.8258	1.5322	2.1503	0.0137
202	1	2	2	1	663.7422	29	1	800	10387.3264	0.0064	2.1736	2.9852	3.6916	4.3589	0.0137
202	1	3	2	1	596.1354	56	1	800	10387.3264	0.0064	4.3846	5.1977	5.9044	6.5042	0.0137
202	1	4	2	1	632.391	29	0	800	10387.3264	0.0064	6.5306	7.3436	8.0501	8.6861	0.0137
202	1	5	2	1	698.758	1	0	800	10387.3264	0.0064	0.0331	0.8462	1.5659	2.2679	0.0137
202	1	6	2	1	418.0552	56	1	800	10387.3264	0.0064	0.0282	0.8413	1.5607	1.9833	0.0137
202	1	7	2	1	701.0876	1	0	800	10387.3264	0.0064	2.0005	2.8136	3.5201	4.2245	0.0137
202	1	8	2	1	701.4564	1	0	800	10387.3264	0.0064	0.0227	0.8357	1.5555	2.2603	0.0137
202	1	9	2	1	523.1277	56	1	800	10387.3264	0.0064	0.0251	0.8382	1.558	2.0856	0.0137
202	1	10	2	1	699.6967	1	0	800	10387.3264	0.0064	2.1191	2.931	3.6374	4.3404	0.0137
202	1	11	2	1	544.6323	56	1	800	10387.3264	0.0064	0.0266	0.8396	1.5594	2.1075	0.0137
202	1	12	2	1	431.9274	56	1	800	10387.3264	0.0064	2.1325	2.9456	3.652	4.0876	0.0137
202	1	1	3	1	429.9015	56	1	800	10387.3264	0.0064	0.0127	0.8258	1.5473	1.9811	4.097
202	1	2	3	1	700.538	1	0	800	10387.3264	0.0064	2.0123	2.8252	3.5317	4.2357	4.097
202	1	3	3	1	458.2237	29	1	800	10387.3264	0.0064	0.0221	0.8352	1.555	2.0167	4.097
202	1	4	3	1	698.5085	1	0	800	10387.3264	0.0064	2.0348	2.8479	3.5544	4.2562	4.097
202	1	5	3	1	394.7803	56	1	800	10387.3264	0.0064	0.0221	0.8352	1.555	1.9532	4.097
202	1	6	3	1	495.2203	56	1	800	10387.3264	0.0064	1.9816	2.7962	3.5011	3.9998	4.097
202	1	7	3	1	702.7346	29	0	800	10387.3264	0.0064	4.0208	4.8339	5.5404	6.2468	4.097
202	1	8	3	1	378.0753	56	1	800	10387.3264	0.0064	0.0304	0.8435	1.5633	1.945	4.097
202	1	9	3	1	354.7011	56	1	800	10387.3264	0.0064	1.9632	2.7762	3.4827	3.8411	4.097
202	1	10	3	1	520.2557	56	0	800	10387.3264	0.0064	3.8692	4.6823	5.3887	5.9127	4.097
202	1	11	3	1	655.1113	29	1	800	10387.3264	0.0064	0.0325	0.8455	1.5653	2.224	4.097
202	1	12	3	1	550.4647	29	1	800	10387.3264	0.0064	2.2452	3.0582	3.7646	4.3261	4.097
202	1	1	4	1	471.8761	29	1	800	10387.3264	0.0064	0.0263	0.8391	1.5456	2.021	4.3356
202	1	2	4	1	416.2216	56	1	800	10387.3264	0.0064	2.0387	2.8518	3.5582	3.9787	4.3356
202	1	3	4	1	451.7407	56	1	800	10387.3264	0.0064	4.0127	4.8247	5.531	5.9866	4.3356
202	1	4	4	1	627.2418	29	0	800	10387.3264	0.0064	6.0107	6.8238	7.5304	8.1614	4.3356
202	1	5	4	1	496.231	29	0	800	10387.3264	0.0064	0.0301	0.8432	1.563	2.0627	4.3356
202	1	6	4	1	526.3623	56	1	800	10387.3264	0.0064	0.0218	0.8349	1.5549	2.0849	4.3356
202	1	7	4	1	570.2389	29	1	800	10387.3264	0.0064	2.1145	2.9277	3.6342	4.208	4.3356
202	1	8	4	1	702.7169	1	0	800	10387.3264	0.0064	4.2338	5.047	5.7534	6.4594	4.3356
202	1	9	4	1	638.7311	29	1	800	10387.3264	0.0064	0.0215	0.8345	1.5543	2.1967	4.3356
202	1	10	4	1	697.8386	56	1	800	10387.3264	0.0064	2.2207	3.0338	3.7404	4.4419	4.3356
202	1	11	4	1	698.5156	1	0	800	10387.3264	0.0064	4.4602	5.2747	5.9929	6.6948	4.3356
202	1	12	4	1	468.0107	56	1	800	10387.3264	0.0064	0.0273	0.8404	1.5604	2.0318	4.3356
202	1	1	5	1	596.589	56	1	800	10387.3264	0.0064	0.0208	0.8339	1.5403	2.1425	2.0452
202	1	2	5	1	423.69	56	1	800	10387.3264	0.0064	2.1673	2.9802	3.6863	4.1137	2.0452
202	1	3	5	1	386.9785	56	1	800	10387.3264	0.0064	4.1394	4.9525	5.659	6.05	2.0452
202	1	4	5	1	481.028	29	1	800	10387.3264	0.0064	6.0722	6.8852	7.5917	8.0765	2.0452
202	1	5	5	1	535.1399	29	1	800	10387.3264	0.0064	8.0983	8.9112	9.6177	10.1566	2.0452
202	1	6	5	1	362.2379	56	1	800	10387.3264	0.0064	10.1774	10.9905	11.697	12.063	2.0452
202	1	7	5	1	697.1546	1	0	800	10387.3264	0.0064	12.0837	12.8966	13.6031	14.3036	2.0452
202	1	8	5	1	664.6483	56	1	800	10387.3264	0.0064	0.0282	0.8413	1.5612	2.2306	2.0452
202	1	9	5	1	460.4383	29	1	800	10387.3264	0.0064	2.2541	3.0672	3.7737	4.2377	2.0452
202	1	10	5	1	399.954	56	0	800	10387.3264	0.0064	4.2668	5.0799	5.7864	6.1901	2.0452
202	1	11	5	1	343.282	29	1	800	10387.3264	0.0064	0.0262	0.8393	1.5591	1.906	2.0452
202	1	12	5	1	418.477	29	1	800	10387.3264	0.0064	1.9323	2.7454	3.4518	3.874	2.0452
202	1	1	6	1	489.9184	56	1	800	10387.3264	0.0064	0.0111	0.8243	1.5307	2.0244	3.8839
202	1	2	6	1	387.3817	56	1	800	10387.3264	0.0064	2.0505	2.8647	3.5701	3.9612	3.8839
202	1	3	6	1	387.4208	29	1	800	10387.3264	0.0064	3.9833	4.7963	5.5028	5.8939	3.8839
202	1	4	6	1	462.0834	56	0	800	10387.3264	0.0064	5.9159	6.729	7.4355	7.9012	3.8839
202	1	5	6	1	462.9303	56	1	800	10387.3264	0.0064	0.034	0.8471	1.5668	2.0341	3.8839
202	1	6	6	1	526.9357	29	1	800	10387.3264	0.0064	2.0613	2.8732	3.5795	4.1102	3.8839
202	1	7	6	1	699.5287	1	0	800	10387.3264	0.0064	4.1393	4.9524	5.6588	6.3617	3.8839
202	1	8	6	1	680.6266	29	1	800	10387.3264	0.0064	0.0232	0.8361	1.5558	2.2409	3.8839
202	1	9	6	1	548.199	29	1	800	10387.3264	0.0064	2.2622	3.0753	3.7818	4.3338	3.8839
202	1	10	6	1	432.4917	29	1	800	10387.3264	0.0064	4.3549	5.1681	5.8893	6.3256	3.8839
202	1	11	6	1	477.4271	29	1	800	10387.3264	0.0064	6.3544	7.1673	7.8738	8.3548	3.8839
202	1	12	6	1	444.5035	56	1	800	10387.3264	0.0064	8.3803	9.1934	9.8998	10.3481	3.8839
202	1	1	7	1	437.5003	29	1	800	10387.3264	0.0064	0.0145	0.8275	1.534	1.976	10.3584
202	1	2	7	1	467.7322	56	1	800	10387.3264	0.0064	2.0005	2.8136	3.52	3.9913	10.3584
202	1	3	7	1	378.6015	29	1	800	10387.3264	0.0064	4.0131	4.8279	5.5327	5.915	10.3584
202	1	4	7	1	422.7491	56	1	800	10387.3264	0.0064	5.9325	6.7456	7.4521	7.8786	10.3584
202	1	5	7	1	683.6474	29	1	800	10387.3264	0.0064	7.9052	8.7317	9.4381	10.1256	10.3584
202	1	6	7	1	397.9701	29	1	800	10387.3264	0.0064	10.1445	10.9576	11.6642	12.0666	10.3584
202	1	7	7	1	535.4544	29	1	800	10387.3264	0.0064	12.0905	12.9036	13.6102	14.1494	10.3584
202	1	8	7	1	544.4439	56	0	800	10387.3264	0.0064	14.1836	14.9964	15.7028	16.2518	10.3584
202	1	9	7	1	426.275	56	1	800	10387.3264	0.0064	0.0352	0.8483	1.568	1.9982	10.3584
202	1	10	7	1	700.5417	1	0	800	10387.3264	0.0064	2.0212	2.8343	3.5408	4.2447	10.3584
202	1	11	7	1	696.5397	1	0	800	10387.3264	0.0064	0.0231	0.9028	1.6228	2.3243	10.3584
202	1	12	7	1	623.0483	56	1	800	10387.3264	0.0064	0.0315	0.8444	1.5642	2.1908	10.3584
202	1	1	8	1	622.4114	29	1	800	10387.3264	0.0064	0.0167	0.8293	1.5357	2.1619	2.2017
202	1	2	8	1	382.6066	29	1	800	10387.3264	0.0064	2.1888	3.0019	3.7084	4.0947	2.2017
202	1	3	8	1	589.3044	29	1	800	10387.3264	0.0064	4.1215	4.9347	5.6411	6.2341	2.2017
202	1	4	8	1	644.9731	29	1	800	10387.3264	0.0064	6.2541	7.0672	7.7737	8.4225	2.2017
202	1	5	8	1	524.7835	56	1	800	10387.3264	0.0064	8.4534	9.2665	9.9879	10.5165	2.2017
202	1	6	8	1	348.7036	56	1	800	10387.3264	0.0064	10.5462	11.3592	12.0656	12.418	2.2017
202	1	7	8	1	500.5103	56	0	800	10387.3264	0.0064	12.4389	13.2519	13.9584	14.4637	2.2017
202	1	8	8	1	390.3928	56	1	800	10387.3264	0.0064	0.0275	0.8406	1.5604	1.9547	2.2017
202	1	9	8	1	266.9507	56	1	800	10387.3264	0.0064	1.9871	2.8666	3.5731	3.8446	2.2017
202	1	10	8	1	623.2811	56	1	800	10387.3264	0.0064	3.8664	4.6794	5.3858	6.0129	2.2017
202	1	11	8	1	443.8178	56	1	800	10387.3264	0.0064	6.0389	6.852	7.5584	8.0058	2.2017
202	1	12	8	1	519.2959	29	1	800	10387.3264	0.0064	8.025	8.838	9.5445	10.0674	2.2017
202	1	1	9	1	297.6324	56	1	800	10387.3264	0.0064	0.0191	0.8324	1.5385	1.8398	10.0779
202	1	2	9	1	371.2326	56	0	800	10387.3264	0.0064	1.8584	2.7382	3.4446	3.8194	10.0779
202	1	3	9	1	392.6794	29	1	800	10387.3264	0.0064	0.0258	0.8389	1.5587	1.9549	10.0779
202	1	4	9	1	500.9112	56	1	800	10387.3264	0.0064	1.9722	2.7983	3.5048	4.0092	10.0779
202	1	5	9	1	548.6895	56	1	800	10387.3264	0.0064	4.038	4.8509	5.5574	6.1116	10.0779
202	1	6	9	1	405.0468	56	1	800	10387.3264	0.0064	6.1454	6.9571	7.6633	8.0721	10.0779
202	1	7	9	1	637.9716	29	0	800	10387.3264	0.0064	8.1032	8.9163	9.6227	10.2651	10.0779
202	1	8	9	1	330.6336	56	1	800	10387.3264	0.0064	0.0274	0.8405	1.5603	1.8954	10.0779
202	1	9	9	1	356.4535	29	1	800	10387.3264	0.0064	1.9201	2.7998	3.5063	3.8664	10.0779
202	1	10	9	1	509.2736	29	1	800	10387.3264	0.0064	3.8928	4.7074	5.4257	5.9387	10.0779
202	1	11	9	1	511.7633	29	1	800	10387.3264	0.0064	5.9588	6.7719	7.4783	7.9944	10.0779
202	1	12	9	1	347.371	56	1	800	10387.3264	0.0064	8.0248	8.8379	9.5443	9.8954	10.0779
202	1	1	10	1	450.9033	29	0	800	10387.3264	0.0064	0.0153	0.9216	1.6281	2.0827	9.9059
202	1	2	10	1	697.6408	1	0	800	10387.3264	0.0064	0.0403	0.8522	1.5719	2.2728	9.9059
202	1	3	10	1	487.0096	29	1	800	10387.3264	0.0064	0.0313	0.8444	1.5641	2.0547	9.9059
202	1	4	10	1	418.5646	29	1	800	10387.3264	0.0064	2.084	2.9637	3.6702	4.0924	9.9059
202	1	5	10	1	700.119	1	0	800	10387.3264	0.0064	4.1233	4.9497	5.6562	6.3597	9.9059
202	1	6	10	1	490.5526	56	1	800	10387.3264	0.0064	0.035	0.8472	1.5669	2.0611	9.9059
202	1	7	10	1	598.7311	29	0	800	10387.3264	0.0064	2.0867	2.8998	3.6065	4.2089	9.9059
202	1	8	10	1	610.2008	56	1	800	10387.3264	0.0064	0.0289	0.842	1.5617	2.1757	9.9059
202	1	9	10	1	455.7516	56	1	800	10387.3264	0.0064	2.2016	3.0146	3.721	4.1804	9.9059
202	1	10	10	1	702.3806	1	0	800	10387.3264	0.0064	4.2009	5.0141	5.7211	6.4269	9.9059
202	1	11	10	1	607.2995	29	1	800	10387.3264	0.0064	0.023	0.8361	1.5559	2.167	9.9059
202	1	12	10	1	568.9143	29	0	800	10387.3264	0.0064	2.1956	3.0086	3.7151	4.2876	9.9059
202	1	1	11	1	460.2337	29	1	800	10387.3264	0.0064	0.0139	0.827	1.5481	2.0126	0.0111
202	1	2	11	1	384.7458	56	1	800	10387.3264	0.0064	2.04	2.853	3.5595	3.9489	0.0111
202	1	3	11	1	389.3406	29	1	800	10387.3264	0.0064	3.9726	4.7857	5.4924	5.8855	0.0111
202	1	4	11	1	450.1093	56	1	800	10387.3264	0.0064	5.9054	6.7185	7.4252	7.8797	0.0111
202	1	5	11	1	433.3699	29	1	800	10387.3264	0.0064	7.9047	8.7178	9.4243	9.8615	0.0111
202	1	6	11	1	476.0414	29	1	800	10387.3264	0.0064	9.8907	10.7038	11.4106	11.8913	0.0111
202	1	7	11	1	464.2945	56	0	800	10387.3264	0.0064	11.9168	12.7298	13.4363	13.9057	0.0111
202	1	8	11	1	333.7225	56	0	800	10387.3264	0.0064	0.0266	0.8397	1.5595	1.8972	0.0111
202	1	9	11	1	404.7592	56	1	800	10387.3264	0.0064	0.0248	0.8379	1.5576	1.966	0.0111
202	1	10	11	1	463.0302	29	0	800	10387.3264	0.0064	1.9841	2.7972	3.5037	3.9722	0.0111
202	1	11	11	1	660.9414	29	1	800	10387.3264	0.0064	0.036	0.8489	1.5691	2.2337	0.0111
202	1	12	11	1	347.3763	56	1	800	10387.3264	0.0064	2.2621	3.0749	3.7814	4.1325	0.0111
202	1	1	12	1	320.1035	29	1	800	10387.3264	0.0064	0.0129	0.8261	1.5325	1.8564	4.1433
202	1	2	12	1	576.7398	29	1	800	10387.3264	0.0064	1.8793	2.6923	3.3986	3.9797	4.1433
202	1	3	12	1	448.4872	56	1	800	10387.3264	0.0064	3.9983	4.8515	5.5578	6.0099	4.1433
202	1	4	12	1	504.2749	56	1	800	10387.3264	0.0064	6.0378	6.8508	7.5572	8.0652	4.1433
202	1	5	12	1	463.9228	29	1	800	10387.3264	0.0064	8.0903	8.9035	9.6099	10.0788	4.1433
202	1	6	12	1	366.5559	56	1	800	10387.3264	0.0064	10.103	10.9161	11.6226	11.9931	4.1433
202	1	7	12	1	383.0441	56	1	800	10387.3264	0.0064	12.0225	12.8355	13.5419	13.9292	4.1433
202	1	8	12	1	403.2494	29	0	800	10387.3264	0.0064	13.9551	14.7682	15.4746	15.8816	4.1433
202	1	9	12	1	565.4609	56	1	800	10387.3264	0.0064	0.0318	0.8449	1.5646	2.1337	4.1433
202	1	10	12	1	508.7569	29	1	800	10387.3264	0.0064	2.1644	2.9775	3.684	4.1967	4.1433
202	1	11	12	1	441.1098	29	1	800	10387.3264	0.0064	4.2172	5.0306	5.7368	6.1816	4.1433
202	1	12	12	1	342.3285	56	1	800	10387.3264	0.0064	6.2032	7.0162	7.7228	8.0698	4.1433
202	1	1	13	1	589.2237	29	0	800	10387.3264	0.0064	0.018	0.8309	1.5373	2.1302	8.0807
202	1	2	13	1	347.2466	56	1	800	10387.3264	0.0064	0.0305	0.8444	1.5635	1.9155	8.0807
202	1	3	13	1	373.5166	56	1	800	10387.3264	0.0064	1.9367	2.7497	3.4562	3.8342	8.0807
202	1	4	13	1	564.364	29	0	800	10387.3264	0.0064	3.8561	4.669	5.3755	5.9437	8.0807
202	1	5	13	1	702.3753	1	0	800	10387.3264	0.0064	0.0286	0.8416	1.5614	2.2671	8.0807
202	1	6	13	1	697.6032	1	0	800	10387.3264	0.0064	0.0311	0.8591	1.5775	2.2784	8.0807
202	1	7	13	1	696.9318	56	1	800	10387.3264	0.0064	0.0236	0.8367	1.5565	2.2571	8.0807
202	1	8	13	1	609.554	56	1	800	10387.3264	0.0064	2.2763	3.0894	3.7959	4.4092	8.0807
202	1	9	13	1	589.8393	56	1	800	10387.3264	0.0064	4.4355	5.2486	5.955	6.5485	8.0807
202	1	10	13	1	702.2811	1	0	800	10387.3264	0.0064	6.5681	7.3812	8.0877	8.7949	8.0807
202	1	11	13	1	563.3654	56	1	800	10387.3264	0.0064	0.0257	0.8386	1.5584	2.1255	8.0807
202	1	12	13	1	698.1939	1	0	800	10387.3264	0.0064	2.1449	2.9579	3.6644	4.366	8.0807
202	1	1	14	1	560.1913	29	0	800	10387.3264	0.0064	0.017	0.8301	1.5364	2.1003	0.0112
202	1	2	14	1	185.7923	56	1	800	10387.3264	0.0064	0.0335	0.8466	1.5665	1.7559	0.0112
202	1	3	14	1	278.9074	56	1	800	10387.3264	0.0064	1.7797	2.5927	3.2992	3.5817	0.0112
202	1	4	14	1	310.8867	56	1	800	10387.3264	0.0064	3.6057	4.4188	5.1262	5.4408	0.0112
202	1	5	14	1	302.1391	56	1	800	10387.3264	0.0064	5.4722	6.2849	6.9914	7.2978	0.0112
202	1	6	14	1	517.4838	29	1	800	10387.3264	0.0064	7.3245	8.1376	8.8441	9.3653	0.0112
202	1	7	14	1	532.0293	56	0	800	10387.3264	0.0064	9.3906	10.2036	10.91	11.4458	0.0112
202	1	8	14	1	701.6697	1	0	800	10387.3264	0.0064	0.0339	0.8471	1.5668	2.276	0.0112
202	1	9	14	1	260.116	56	1	800	10387.3264	0.0064	0.0282	0.841	1.5608	1.8246	0.0112
202	1	10	14	1	295.5238	56	1	800	10387.3264	0.0064	1.854	2.6671	3.3735	3.6726	0.0112
202	1	11	14	1	306.6652	56	1	800	10387.3264	0.0064	3.7068	4.5198	5.2263	5.5366	0.0112
202	1	12	14	1	458.7126	56	1	800	10387.3264	0.0064	5.5595	6.3725	7.079	7.5414	0.0112
202	1	1	15	1	500.8081	29	1	800	10387.3264	0.0064	0.018	0.833	1.5509	2.0554	7.5528
202	1	2	15	1	614.1188	56	0	800	10387.3264	0.0064	2.084	2.897	3.6035	4.2213	7.5528
202	1	3	15	1	208.0917	56	1	800	10387.3264	0.0064	0.0326	0.8445	1.5642	1.7759	7.5528
202	1	4	15	1	299.3455	56	1	800	10387.3264	0.0064	1.8042	2.6173	3.3238	3.6276	7.5528
202	1	5	15	1	362.434	56	1	800	10387.3264	0.0064	3.6569	4.4717	5.1897	5.5566	7.5528
202	1	6	15	1	477.0604	56	1	800	10387.3264	0.0064	5.5763	6.3893	7.0958	7.5767	7.5528
202	1	7	15	1	417.7603	29	1	800	10387.3264	0.0064	7.6024	8.4154	9.1219	9.5434	7.5528
202	1	8	15	1	576.3456	29	1	800	10387.3264	0.0064	9.575	10.388	11.0945	11.6745	7.5528
202	1	9	15	1	397.3967	56	1	800	10387.3264	0.0064	11.6943	12.5074	13.2138	13.6165	7.5528
202	1	10	15	1	605.993	29	1	800	10387.3264	0.0064	13.6415	14.4535	15.1598	15.7695	7.5528
202	1	11	15	1	306.5585	56	1	800	10387.3264	0.0064	15.7997	16.6127	17.3192	17.6315	7.5528
202	1	12	15	1	294.3776	29	1	800	10387.3264	0.0064	17.6523	18.4655	19.1719	19.4702	7.5528
202	1	1	16	1	401.9338	29	1	800	10387.3264	0.0064	0.0084	0.8214	1.5279	1.9342	19.4812
202	1	2	16	1	376.9581	56	1	800	10387.3264	0.0064	1.9691	2.781	3.4873	3.8688	19.4812
202	1	3	16	1	323.6923	29	1	800	10387.3264	0.0064	3.8871	4.7002	5.4066	5.7342	19.4812
202	1	4	16	1	440.5327	29	1	800	10387.3264	0.0064	5.7665	6.5795	7.286	7.7302	19.4812
202	1	5	16	1	444.1442	56	0	800	10387.3264	0.0064	7.7525	8.5656	9.272	9.7213	19.4812
202	1	6	16	1	472.1899	29	1	800	10387.3264	0.0064	0.0299	0.843	1.5648	2.0415	19.4812
202	1	7	16	1	592.0145	56	1	800	10387.3264	0.0064	2.0747	2.8822	3.5887	4.1847	19.4812
202	1	8	16	1	669.7914	29	0	800	10387.3264	0.0064	4.2153	5.0282	5.7347	6.4081	19.4812
202	1	9	16	1	375.7463	29	1	800	10387.3264	0.0064	0.0247	0.8377	1.5575	1.9369	19.4812
202	1	10	16	1	328.212	56	1	800	10387.3264	0.0064	1.9574	2.7705	3.4915	3.8238	19.4812
202	1	11	16	1	294.7246	56	1	800	10387.3264	0.0064	3.8502	4.6632	5.3698	5.6694	19.4812
202	1	12	16	1	411.389	56	1	800	10387.3264	0.0064	5.6895	6.5026	7.2091	7.6241	19.4812
202	1	1	17	1	418.8548	29	0	800	10387.3264	0.0064	0.0101	0.8231	1.5295	1.9521	7.6346
202	1	2	17	1	409.3369	56	1	800	10387.3264	0.0064	0.0327	0.8607	1.5792	1.9922	7.6346
202	1	3	17	1	413.5353	29	1	800	10387.3264	0.0064	2.0187	2.8318	3.5383	3.9564	7.6346
202	1	4	17	1	312.1201	56	1	800	10387.3264	0.0064	3.9781	4.7912	5.4977	5.8135	7.6346
202	1	5	17	1	249.1003	56	1	800	10387.3264	0.0064	5.8442	6.6573	7.3637	7.617	7.6346
202	1	6	17	1	238.4042	56	1	800	10387.3264	0.0064	7.6436	8.4567	9.1631	9.4051	7.6346
202	1	7	17	1	393.2584	29	0	800	10387.3264	0.0064	9.4297	10.2438	10.9493	11.3469	7.6346
202	1	8	17	1	662.8008	29	1	800	10387.3264	0.0064	0.033	0.8461	1.5659	2.2324	7.6346
202	1	9	17	1	389.4367	56	0	800	10387.3264	0.0064	2.2589	3.072	3.7785	4.1717	7.6346
202	1	10	17	1	267.0435	56	1	800	10387.3264	0.0064	0.0345	0.8476	1.5673	1.8381	7.6346
202	1	11	17	1	248.5076	56	1	800	10387.3264	0.0064	1.8607	2.6738	3.3801	3.6323	7.6346
202	1	12	17	1	289.25	29	0	800	10387.3264	0.0064	3.66	4.473	5.1795	5.4735	7.6346
202	1	1	18	1	348.9152	56	1	800	10387.3264	0.0064	0.0088	0.8219	1.5282	1.8807	0.0107
202	1	2	18	1	312.7526	56	1	800	10387.3264	0.0064	1.9014	2.7145	3.4209	3.7375	0.0107
202	1	3	18	1	258.879	56	0	800	10387.3264	0.0064	3.7674	4.5808	5.2871	5.5496	0.0107
202	1	4	18	1	638.0009	29	1	800	10387.3264	0.0064	0.0244	0.8373	1.5571	2.1987	0.0107
202	1	5	18	1	322.8815	56	1	800	10387.3264	0.0064	2.2237	3.0366	3.7431	4.0697	0.0107
202	1	6	18	1	239.0753	56	1	800	10387.3264	0.0064	4.0896	4.9027	5.6091	5.8519	0.0107
202	1	7	18	1	287.7473	56	1	800	10387.3264	0.0064	5.8758	6.6888	7.3953	7.6867	0.0107
202	1	8	18	1	269.0749	56	1	800	10387.3264	0.0064	7.7155	8.5286	9.2347	9.5074	0.0107
202	1	9	18	1	281.942	56	1	800	10387.3264	0.0064	9.5278	10.3409	11.0474	11.3331	0.0107
202	1	10	18	1	416.7384	29	1	800	10387.3264	0.0064	11.3539	12.167	12.8735	13.2938	0.0107
202	1	11	18	1	368.6052	29	1	800	10387.3264	0.0064	13.3133	14.1264	14.8328	15.2052	0.0107
202	1	12	18	1	369.4566	29	1	800	10387.3264	0.0064	15.2326	16.0457	16.7522	17.1259	0.0107
202	1	1	19	1	391.1491	29	1	800	10387.3264	0.0064	0.0207	0.8336	1.54	1.9349	17.1362
202	1	2	19	1	285.6139	56	0	800	10387.3264	0.0064	1.9532	2.7663	3.4727	3.7622	17.1362
202	1	3	19	1	228.2667	56	0	800	10387.3264	0.0064	0.0275	0.8405	1.5603	1.7922	17.1362
202	1	4	19	1	363.9354	56	1	800	10387.3264	0.0064	0.036	0.8492	1.5689	1.937	17.1362
202	1	5	19	1	356.063	56	1	800	10387.3264	0.0064	1.9701	2.7819	3.4882	3.848	17.1362
202	1	6	19	1	398.8388	56	1	800	10387.3264	0.0064	3.8749	4.6879	5.3943	5.7974	17.1362
202	1	7	19	1	409.91	56	1	800	10387.3264	0.0064	5.8208	6.6339	7.3403	7.7545	17.1362
202	1	8	19	1	228.0879	29	1	800	10387.3264	0.0064	7.7802	8.5932	9.2998	9.5316	17.1362
202	1	9	19	1	353.1279	29	1	800	10387.3264	0.0064	9.5529	10.366	11.0727	11.4299	17.1362
202	1	10	19	1	349.9548	29	0	800	10387.3264	0.0064	11.4591	12.2721	12.9785	13.3324	17.1362
202	1	11	19	1	245.2517	56	0	800	10387.3264	0.0064	0.0334	0.8464	1.5661	1.815	17.1362
202	1	12	19	1	270.0707	56	1	800	10387.3264	0.0064	0.0277	0.8408	1.5606	1.8343	17.1362
202	1	1	20	1	499.8694	29	1	800	10387.3264	0.0064	0.0175	0.8319	1.537	2.0406	1.8459
202	1	2	20	1	449.2339	29	1	800	10387.3264	0.0064	2.0702	2.8833	3.5897	4.0442	1.8459
202	1	3	20	1	408.8144	29	1	800	10387.3264	0.0064	4.0695	4.8826	5.5891	6.0017	1.8459
202	1	4	20	1	281.9122	56	1	800	10387.3264	0.0064	6.0289	6.842	7.5485	7.8343	1.8459
202	1	5	20	1	697.6533	1	0	800	10387.3264	0.0064	7.855	8.668	9.3745	10.0766	1.8459
202	1	6	20	1	702.3963	1	0	800	10387.3264	0.0064	0.0422	0.8545	1.5742	2.2798	1.8459
202	1	7	20	1	700.5505	56	1	800	10387.3264	0.0064	0.0337	0.8468	1.5666	2.2712	1.8459
202	1	8	20	1	501.1143	56	0	800	10387.3264	0.0064	2.2996	3.1127	3.8191	4.3238	1.8459
202	1	9	20	1	697.7553	1	0	800	10387.3264	0.0064	0.0323	0.8454	1.5655	2.268	1.8459
202	1	10	20	1	481.7299	56	1	800	10387.3264	0.0064	0.0357	0.8488	1.5685	2.0541	1.8459
202	1	11	20	1	701.944	1	0	800	10387.3264	0.0064	2.0751	2.8881	3.5947	4.2999	1.8459
202	1	12	20	1	472.3554	56	1	800	10387.3264	0.0064	0.0291	0.8423	1.562	2.038	1.8459
202	1	1	21	1	480.8242	29	1	800	10387.3264	0.0064	0.0143	0.8274	1.5342	2.0187	2.0495
202	1	2	21	1	698.1059	1	0	800	10387.3264	0.0064	2.0404	2.8535	3.5599	4.2613	2.0495
202	1	3	21	1	695.4813	29	1	800	10387.3264	0.0064	0.0275	0.8406	1.5604	2.2602	2.0495
202	1	4	21	1	443.4189	29	1	800	10387.3264	0.0064	2.2946	3.1067	3.813	4.2604	2.0495
202	1	5	21	1	374.2898	29	1	800	10387.3264	0.0064	4.2795	5.0926	5.799	6.1776	2.0495
202	1	6	21	1	401.6368	29	1	800	10387.3264	0.0064	6.1988	7.0119	7.7184	8.1236	2.0495
202	1	7	21	1	594.2932	56	1	800	10387.3264	0.0064	8.1449	8.958	9.6644	10.2624	2.0495
202	1	8	21	1	585.058	56	1	800	10387.3264	0.0064	10.2908	11.1039	11.8106	12.4003	2.0495
202	1	9	21	1	533.874	29	1	800	10387.3264	0.0064	12.4238	13.2366	13.9433	14.4815	2.0495
202	1	10	21	1	314.6946	56	1	800	10387.3264	0.0064	14.5028	15.3159	16.0224	16.3407	2.0495
202	1	11	21	1	432.2915	29	0	800	10387.3264	0.0064	16.3689	17.182	17.8884	18.3244	2.0495
202	1	12	21	1	470.7426	56	1	800	10387.3264	0.0064	0.0304	0.8434	1.5631	2.0385	2.0495
202	1	1	22	1	535.7459	29	1	800	10387.3264	0.0064	0.0092	0.8222	1.5287	2.068	2.0507
202	1	2	22	1	700.2026	1	0	800	10387.3264	0.0064	2.1017	2.9148	3.6213	4.325	2.0507
202	1	3	22	1	401.1934	56	1	800	10387.3264	0.0064	0.0245	0.8375	1.5573	1.9622	2.0507
202	1	4	22	1	511.6977	29	0	800	10387.3264	0.0064	1.9839	2.7971	3.5043	4.0205	2.0507
202	1	5	22	1	698.1689	1	0	800	10387.3264	0.0064	0.0241	0.837	1.5572	2.2586	2.0507
202	1	6	22	1	520.4853	56	1	800	10387.3264	0.0064	0.0261	0.8392	1.5591	2.0835	2.0507
202	1	7	22	1	447.6838	56	1	800	10387.3264	0.0064	2.1055	2.9186	3.6251	4.0766	2.0507
202	1	8	22	1	588.9152	56	1	800	10387.3264	0.0064	4.1048	4.9179	5.6244	6.2177	2.0507
202	1	9	22	1	354.912	56	1	800	10387.3264	0.0064	6.2526	7.0639	7.7703	8.1297	2.0507
202	1	10	22	1	616.3133	29	1	800	10387.3264	0.0064	8.1568	8.9699	9.6764	10.2963	2.0507
202	1	11	22	1	519.7507	29	1	800	10387.3264	0.0064	10.3161	11.1292	11.8357	12.3593	2.0507
202	1	12	22	1	325.6739	56	1	800	10387.3264	0.0064	12.3821	13.1952	13.9017	14.2312	2.0507
202	1	1	23	1	406.5096	29	1	800	10387.3264	0.0064	0.0107	0.823	1.5294	1.9397	14.2426
202	1	2	23	1	525.557	56	1	800	10387.3264	0.0064	1.9693	2.7823	3.4889	4.0181	14.2426
202	1	3	23	1	332.4147	56	1	800	10387.3264	0.0064	4.0486	4.8616	5.5682	5.9043	14.2426
202	1	4	23	1	409.308	29	1	800	10387.3264	0.0064	5.928	6.741	7.4475	7.8605	14.2426
202	1	5	23	1	427.6676	56	1	800	10387.3264	0.0064	7.8873	8.7007	9.4069	9.8383	14.2426
202	1	6	23	1	336.1813	56	1	800	10387.3264	0.0064	9.8601	10.6732	11.3796	11.7194	14.2426
202	1	7	23	1	354.6616	29	0	800	10387.3264	0.0064	11.7394	12.5525	13.259	13.6173	14.2426
202	1	8	23	1	557.6403	56	1	800	10387.3264	0.0064	0.0309	0.844	1.5638	2.125	14.2426
202	1	9	23	1	404.889	29	1	800	10387.3264	0.0064	2.1502	2.9633	3.6698	4.079	14.2426
202	1	10	23	1	645.0072	29	1	800	10387.3264	0.0064	4.111	4.9229	5.6291	6.2785	14.2426
202	1	11	23	1	501.3812	56	1	800	10387.3264	0.0064	6.309	7.122	7.8287	8.3338	14.2426
202	1	12	23	1	383.6935	56	1	800	10387.3264	0.0064	8.3616	9.1746	9.8811	10.2686	14.2426
202	1	1	24	1	301.1365	56	1	800	10387.3264	0.0064	0.02	0.8331	1.5397	1.8446	10.28
202	1	2	24	1	342.4916	56	1	800	10387.3264	0.0064	1.8731	2.6857	3.3922	3.7399	10.28
202	1	3	24	1	211.5927	56	1	800	10387.3264	0.0064	3.7654	4.5785	5.285	5.5014	10.28
202	1	4	24	1	392.9963	56	1	800	10387.3264	0.0064	5.5248	6.3379	7.0443	7.4411	10.28
202	1	5	24	1	278.3146	56	1	800	10387.3264	0.0064	7.4709	8.2839	8.9904	9.2731	10.28
202	1	6	24	1	370.616	29	1	800	10387.3264	0.0064	9.2969	10.11	10.8308	11.2072	10.28
202	1	7	24	1	394.9623	56	0	800	10387.3264	0.0064	11.2449	12.0561	12.7627	13.1613	10.28
202	1	8	24	1	566.7704	29	1	800	10387.3264	0.0064	0.0321	0.8452	1.5649	2.1353	10.28
202	1	9	24	1	283.8504	56	1	800	10387.3264	0.0064	2.1648	2.9778	3.6843	3.9718	10.28
202	1	10	24	1	261.7688	56	1	800	10387.3264	0.0064	3.9908	4.8039	5.5256	5.7916	10.28
202	1	11	24	1	330.4885	56	1	800	10387.3264	0.0064	5.817	6.6301	7.3364	7.6712	10.28
202	1	12	24	1	313.0245	56	1	800	10387.3264	0.0064	7.6962	8.5093	9.2158	9.5326	10.28
202	1	1	25	1	314.1273	56	1	800	10387.3264	0.0064	0.0194	0.8325	1.5389	1.8566	9.5438
202	1	2	25	1	242.0027	56	1	800	10387.3264	0.0064	1.8854	2.6985	3.4049	3.6513	9.5438
202	1	3	25	1	329.3235	56	1	800	10387.3264	0.0064	3.6861	4.4981	5.2044	5.5379	9.5438
202	1	4	25	1	331.2132	56	1	800	10387.3264	0.0064	5.5642	6.3774	7.0838	7.4187	9.5438
202	1	5	25	1	297.4952	56	1	800	10387.3264	0.0064	7.4436	8.2567	8.9632	9.2642	9.5438
202	1	6	25	1	403.1174	29	1	800	10387.3264	0.0064	9.283	10.0962	10.8026	11.2095	9.5438
202	1	7	25	1	594.1062	56	0	800	10387.3264	0.0064	11.229	12.0422	12.7632	13.361	9.5438
202	1	8	25	1	415.3972	29	1	800	10387.3264	0.0064	0.0248	0.8379	1.5578	1.9769	9.5438
202	1	9	25	1	282.9291	56	1	800	10387.3264	0.0064	1.9975	2.8106	3.517	3.8036	9.5438
202	1	10	25	1	395.9802	56	1	800	10387.3264	0.0064	3.8236	4.6367	5.3433	5.7436	9.5438
202	1	11	25	1	302.2409	56	1	800	10387.3264	0.0064	5.7698	6.5827	7.2892	7.5958	9.5438
202	1	12	25	1	340.0985	56	1	800	10387.3264	0.0064	7.6223	8.4354	9.1419	9.4857	9.5438
202	1	1	26	1	334.6274	56	1	800	10387.3264	0.0064	0.0158	0.8289	1.5354	1.8737	9.4959
202	1	2	26	1	376.1171	56	0	800	10387.3264	0.0064	1.8952	2.7083	3.4157	3.7956	9.4959
202	1	3	26	1	700.6254	1	0	800	10387.3264	0.0064	0.0327	0.8458	1.5656	2.2695	9.4959
202	1	4	26	1	544.0929	29	1	800	10387.3264	0.0064	0.0264	0.8394	1.5593	2.1071	9.4959
202	1	5	26	1	298.6321	56	1	800	10387.3264	0.0064	2.1323	2.9454	3.6519	3.9543	9.4959
202	1	6	26	1	238.9174	56	1	800	10387.3264	0.0064	3.9852	4.7988	5.5046	5.7473	9.4959
202	1	7	26	1	348.1686	56	1	800	10387.3264	0.0064	5.7712	6.5842	7.2907	7.6426	9.4959
202	1	8	26	1	354.1301	56	1	800	10387.3264	0.0064	7.6639	8.477	9.1835	9.5412	9.4959
202	1	9	26	1	411.7941	29	1	800	10387.3264	0.0064	9.5699	10.383	11.0895	11.5061	9.4959
202	1	10	26	1	408.115	56	0	800	10387.3264	0.0064	11.5293	12.3424	13.0488	13.4617	9.4959
202	1	11	26	1	701.7023	1	0	800	10387.3264	0.0064	0.0279	0.8408	1.5606	2.2656	9.4959
202	1	12	26	1	341.7292	56	0	800	10387.3264	0.0064	0.0287	0.8418	1.5616	1.9069	9.4959
202	1	1	27	1	341.1254	56	1	800	10387.3264	0.0064	0.0147	0.8276	1.5342	1.879	0.0109
202	1	2	27	1	372.0146	29	1	800	10387.3264	0.0064	1.9076	2.7205	3.4268	3.8024	0.0109
202	1	3	27	1	271.944	56	1	800	10387.3264	0.0064	3.8267	4.6398	5.3462	5.622	0.0109
202	1	4	27	1	376.6707	56	0	800	10387.3264	0.0064	5.6528	6.4658	7.1723	7.5526	0.0109
202	1	5	27	1	701.8058	1	0	800	10387.3264	0.0064	0.0306	0.8437	1.5635	2.2687	0.0109
202	1	6	27	1	701.7011	1	0	800	10387.3264	0.0064	0.0311	0.8445	1.5642	2.2692	0.0109
202	1	7	27	1	568.9058	29	1	800	10387.3264	0.0064	0.0309	0.844	1.5637	2.1363	0.0109
202	1	8	27	1	499.9903	56	1	800	10387.3264	0.0064	2.1635	2.9766	3.683	4.1867	0.0109
202	1	9	27	1	288.9718	56	1	800	10387.3264	0.0064	4.2162	5.0292	5.7357	6.0288	0.0109
202	1	10	27	1	437.4042	29	1	800	10387.3264	0.0064	6.0556	6.8686	7.5897	8.0331	0.0109
202	1	11	27	1	599.5738	29	0	800	10387.3264	0.0064	8.0701	8.8813	9.5878	10.1911	0.0109
202	1	12	27	1	164.4377	56	1	800	10387.3264	0.0064	0.0295	0.8426	1.5624	1.7304	0.0109
202	1	1	28	1	405.6291	29	1	800	10387.3264	0.0064	0.0096	0.8228	1.5292	1.9384	1.7421
202	1	2	28	1	701.8783	1	0	800	10387.3264	0.0064	1.969	2.7837	3.4886	4.1939	1.7421
202	1	3	28	1	499.7695	56	1	800	10387.3264	0.0064	0.0289	0.8419	1.5617	2.0654	1.7421
202	1	4	28	1	343.799	56	1	800	10387.3264	0.0064	2.0949	2.908	3.6144	3.9642	1.7421
202	1	5	28	1	321.0276	29	1	800	10387.3264	0.0064	4.0026	4.8142	5.5205	5.8455	1.7421
202	1	6	28	1	390.7834	56	1	800	10387.3264	0.0064	5.867	6.6801	7.3866	7.7811	1.7421
202	1	7	28	1	447.7732	29	0	800	10387.3264	0.0064	7.7997	8.6127	9.3192	9.7711	1.7421
202	1	8	28	1	587.2196	29	0	800	10387.3264	0.0064	0.0262	0.8393	1.559	2.1502	1.7421
202	1	9	28	1	289.8298	56	1	800	10387.3264	0.0064	0.0439	0.8558	1.5753	1.8702	1.7421
202	1	10	28	1	598.9429	29	1	800	10387.3264	0.0064	1.8953	2.7083	3.4147	4.0173	1.7421
202	1	11	28	1	574.3387	56	0	800	10387.3264	0.0064	4.0411	4.8542	5.5606	6.1387	1.7421
202	1	12	28	1	36.8178	56	1	800	10387.3264	0.0064	0.0278	0.8409	1.5617	1.6045	1.7421
202	1	1	29	1	401.8175	56	1	800	10387.3264	0.0064	0.0148	0.8279	1.5344	1.9398	1.6173
202	1	2	29	1	697.7977	1	0	800	10387.3264	0.0064	1.9608	2.774	3.4803	4.1815	1.6173
202	1	3	29	1	433.8852	29	1	800	10387.3264	0.0064	0.0354	0.8483	1.568	2.0058	1.6173
202	1	4	29	1	530.0971	29	1	800	10387.3264	0.0064	2.0346	2.8489	3.5678	4.1016	1.6173
202	1	5	29	1	395.9513	56	1	800	10387.3264	0.0064	4.1272	4.9403	5.6467	6.0469	1.6173
202	1	6	29	1	300.5228	56	1	800	10387.3264	0.0064	6.0732	6.8863	7.5928	7.8971	1.6173
202	1	7	29	1	325.0506	56	1	800	10387.3264	0.0064	7.926	8.7391	9.4455	9.7743	1.6173
202	1	8	29	1	350.1551	56	1	800	10387.3264	0.0064	9.8054	10.6184	11.3248	11.6795	1.6173
202	1	9	29	1	295.2128	56	1	800	10387.3264	0.0064	11.7133	12.5246	13.231	13.5306	1.6173
202	1	10	29	1	470.4425	29	1	800	10387.3264	0.0064	13.5508	14.3639	15.0704	15.5447	1.6173
202	1	11	29	1	444.1419	29	1	800	10387.3264	0.0064	15.5768	16.3899	17.0965	17.5443	1.6173
202	1	12	29	1	396.0003	29	1	800	10387.3264	0.0064	17.5763	18.3893	19.0957	19.4957	1.6173
202	1	1	30	1	422.4265	29	1	800	10387.3264	0.0064	0.019	0.8311	1.5374	1.9634	19.507
202	1	2	30	1	415.0791	56	1	800	10387.3264	0.0064	1.9907	2.8037	3.5101	3.929	19.507
202	1	3	30	1	590.3851	56	1	800	10387.3264	0.0064	3.95	4.763	5.4694	6.0634	19.507
202	1	4	30	1	313.2881	56	1	800	10387.3264	0.0064	6.0826	6.8957	7.6021	7.9192	19.507
202	1	5	30	1	305.796	56	1	800	10387.3264	0.0064	7.9487	8.7617	9.47	9.7799	19.507
202	1	6	30	1	262.3653	56	1	800	10387.3264	0.0064	9.8015	10.6145	11.3211	11.5877	19.507
202	1	7	30	1	356.756	29	1	800	10387.3264	0.0064	11.6141	12.4272	13.1338	13.4942	19.507
202	1	8	30	1	543.6466	29	1	800	10387.3264	0.0064	13.5202	14.3333	15.0397	15.587	19.507
202	1	9	30	1	395.3041	29	1	800	10387.3264	0.0064	15.6128	16.4259	17.1324	17.5312	19.507
202	1	10	30	1	273.1643	56	1	800	10387.3264	0.0064	17.5588	18.3736	19.0918	19.3688	19.507
202	1	11	30	1	300.2418	29	0	800	10387.3264	0.0064	19.3983	20.2113	20.9179	21.2218	19.507
202	1	12	30	1	395.6361	56	1	800	10387.3264	0.0064	0.0299	0.843	1.5629	1.9625	19.507
202	1	1	31	1	496.3891	29	1	800	10387.3264	0.0064	0.0212	0.8325	1.5389	2.0395	1.9731
202	1	2	31	1	656.9553	29	0	800	10387.3264	0.0064	2.0586	2.8718	3.5782	4.2388	1.9731
202	1	3	31	1	371.6442	56	1	800	10387.3264	0.0064	0.0254	0.8386	1.5583	1.9338	1.9731
202	1	4	31	1	596.8618	56	1	800	10387.3264	0.0064	1.9582	2.7712	3.4776	4.0809	1.9731
202	1	5	31	1	276.8257	56	1	800	10387.3264	0.0064	4.1182	4.9307	5.637	5.9176	1.9731
202	1	6	31	1	360.1942	29	1	800	10387.3264	0.0064	5.9435	6.7566	7.463	7.8271	1.9731
202	1	7	31	1	343.1534	29	1	800	10387.3264	0.0064	7.8495	8.6627	9.3692	9.716	1.9731
202	1	8	31	1	361.4972	56	1	800	10387.3264	0.0064	9.7422	10.5553	11.2618	11.6271	1.9731
202	1	9	31	1	344.9521	29	1	800	10387.3264	0.0064	11.6484	12.4615	13.1681	13.5169	1.9731
202	1	10	31	1	439.5889	56	1	800	10387.3264	0.0064	13.5412	14.3541	15.0605	15.5037	1.9731
202	1	11	31	1	440.01	56	0	800	10387.3264	0.0064	15.527	16.3401	17.0466	17.4905	1.9731
202	1	12	31	1	80.6622	56	0	800	10387.3264	0.0064	0.0315	0.8446	1.5643	1.6487	1.9731
202	1	1	32	1	402.1206	56	1	800	10387.3264	0.0064	0.0104	0.8232	1.5298	1.9366	0.0112
202	1	2	32	1	390.2277	56	1	800	10387.3264	0.0064	1.9694	2.7825	3.4889	3.883	0.0112
202	1	3	32	1	401.836	29	1	800	10387.3264	0.0064	3.9023	4.7152	5.4217	5.8272	0.0112
202	1	4	32	1	382.8817	29	1	800	10387.3264	0.0064	5.8481	6.6612	7.3677	7.7541	0.0112
202	1	5	32	1	510.9592	56	1	800	10387.3264	0.0064	7.7809	8.5939	9.3006	9.8158	0.0112
202	1	6	32	1	316.1104	29	1	800	10387.3264	0.0064	9.847	10.6599	11.3664	11.6862	0.0112
202	1	7	32	1	390.2538	56	1	800	10387.3264	0.0064	11.7129	12.526	13.2325	13.6266	0.0112
202	1	8	32	1	390.1066	29	1	800	10387.3264	0.0064	13.6457	14.4587	15.1651	15.559	0.0112
202	1	9	32	1	351.9947	29	1	800	10387.3264	0.0064	15.5783	16.3914	17.0979	17.4537	0.0112
202	1	10	32	1	391.2258	29	1	800	10387.3264	0.0064	17.4844	18.2978	19.0039	19.3988	0.0112
202	1	11	32	1	436.2297	29	1	800	10387.3264	0.0064	19.4305	20.2435	20.9501	21.39	0.0112
202	1	12	32	1	336.7458	56	1	800	10387.3264	0.0064	21.4165	22.2295	22.936	23.2765	0.0112
202	2	1	1	1	353.5452	29	1	800	11569.2064	0.0028	0.02	0.8331	1.5395	1.8967	0
202	2	2	1	1	462.7934	56	1	800	11569.2064	0.0028	1.9261	2.7393	3.4457	3.9134	0
202	2	3	1	1	294.6201	56	1	800	11569.2064	0.0028	3.9388	4.7519	5.4586	5.7569	0
202	2	4	1	1	678.2728	56	1	800	11569.2064	0.0028	5.7783	6.5912	7.2977	7.9806	0
202	2	5	1	1	352.3701	29	0	800	11569.2064	0.0028	8.0041	8.8172	9.5236	9.8796	0
202	2	6	1	1	435.8826	29	1	800	11569.2064	0.0028	0.0365	0.8496	1.5693	2.0089	0
202	2	7	1	1	413.1331	56	0	800	11569.2064	0.0028	2.0358	2.849	3.5554	3.9729	0
202	2	8	1	1	527.3752	56	1	800	11569.2064	0.0028	0.0279	0.841	1.5607	2.0917	0
202	2	9	1	1	321.2352	56	1	800	11569.2064	0.0028	2.1206	2.9337	3.6401	3.965	0
202	2	10	1	1	520.6579	29	1	800	11569.2064	0.0028	3.9999	4.813	5.5194	6.0436	0
202	2	11	1	1	612.7372	29	1	800	11569.2064	0.0028	6.066	6.879	7.5857	8.2023	0
202	2	12	1	1	598.7578	56	1	800	11569.2064	0.0028	8.2255	9.0383	9.7448	10.3475	0
202	2	13	1	1	386.7525	56	1	800	11569.2064	0.0028	10.3712	11.1843	11.8908	12.2812	0
202	2	14	1	1	699.8721	56	0	800	11569.2064	0.0028	12.3039	13.117	13.8236	14.5272	0
202	2	15	1	1	362.9911	56	1	800	11569.2064	0.0028	0.0313	0.8589	1.5775	1.9442	0
202	2	16	1	1	454.6644	29	1	800	11569.2064	0.0028	1.9639	2.777	3.4834	3.9421	0
202	2	17	1	1	444.1855	29	1	800	11569.2064	0.0028	3.9632	4.7763	5.4827	5.9305	0
202	2	18	1	1	672.9564	56	1	800	11569.2064	0.0028	5.9492	6.7624	7.4688	8.1456	0
202	2	19	1	1	381.1545	56	1	800	11569.2064	0.0028	8.1752	8.9882	9.6949	10.0799	0
202	2	20	1	1	543.7898	29	1	800	11569.2064	0.0028	10.1082	10.921	11.6274	12.1759	0
202	2	21	1	1	444.7764	29	1	800	11569.2064	0.0028	12.2005	13.0136	13.7202	14.1687	0
202	2	22	1	1	626.5376	29	1	800	11569.2064	0.0028	14.1999	15.013	15.7195	16.3495	0
202	2	23	1	1	697.4696	1	0	800	11569.2064	0.0028	16.3726	17.1856	17.8921	18.5929	0
202	2	24	1	1	525.9032	29	1	800	11569.2064	0.0028	0.0346	0.8475	1.5671	2.0966	0
202	2	25	1	1	613.9062	56	0	800	11569.2064	0.0028	2.1269	2.94	3.6465	4.2644	0
202	2	26	1	1	347.1284	56	1	800	11569.2064	0.0028	0.0348	0.8479	1.5676	1.9185	0
202	2	27	1	1	300.7103	56	1	800	11569.2064	0.0028	1.941	2.754	3.4606	3.7659	0
202	2	28	1	1	297.7286	56	1	800	11569.2064	0.0028	3.7954	4.6067	5.3131	5.6144	0
202	2	29	1	1	495.6512	29	1	800	11569.2064	0.0028	5.6463	6.4594	7.1659	7.667	0
202	2	30	1	1	299.3685	56	1	800	11569.2064	0.0028	7.6857	8.4988	9.2052	9.5084	0
202	3	1	1	1	383.249	56	1	800	11650.2844	0.0028	0.015	0.8277	1.5342	1.922	0
202	3	2	1	1	386.006	29	1	800	11650.2844	0.0028	1.9473	2.7604	3.4671	3.8568	0
202	3	3	1	1	267.6477	56	1	800	11650.2844	0.0028	3.8802	4.6931	5.3996	5.6711	0
202	3	4	1	1	343.8633	56	0	800	11650.2844	0.0028	5.6928	6.5058	7.2123	7.5604	0
202	3	5	1	1	546.3032	29	1	800	11650.2844	0.0028	0.0346	0.8477	1.5674	2.1179	0
202	3	6	1	1	285.0778	56	1	800	11650.2844	0.0028	2.1405	2.9539	3.6604	3.949	0
202	3	7	1	1	280.0276	56	0	800	11650.2844	0.0028	3.98	4.7931	5.4995	5.7833	0
202	3	8	1	1	331.8791	56	1	800	11650.2844	0.0028	0.0319	0.8449	1.5647	1.9002	0
202	3	9	1	1	296.7289	56	1	800	11650.2844	0.0028	1.9246	2.7376	3.4442	3.7455	0
202	3	10	1	1	163.0697	29	0	800	11650.2844	0.0028	3.7785	4.5906	5.2968	5.4639	0
202	3	11	1	1	425.9592	56	1	800	11650.2844	0.0028	0.0334	0.8464	1.5661	1.9956	0
202	3	12	1	1	321.2883	56	1	800	11650.2844	0.0028	2.0194	2.8324	3.5389	3.864	0
202	3	1	2	1	466.7308	29	1	800	11650.2844	0.0028	0.0155	0.8284	1.5348	2.0056	3.8753
202	3	2	2	1	377.0757	56	1	800	11650.2844	0.0028	2.0279	2.841	3.5475	3.9281	3.8753
202	3	3	2	1	304.4932	56	1	800	11650.2844	0.0028	3.9473	4.7603	5.4668	5.7758	3.8753
202	3	4	2	1	651.5186	56	1	800	11650.2844	0.0028	5.8	6.6131	7.3195	7.9747	3.8753
202	3	5	2	1	421.9546	56	1	800	11650.2844	0.0028	7.9993	8.8124	9.5342	9.9607	3.8753
202	3	6	2	1	409.3802	56	1	800	11650.2844	0.0028	9.9856	10.7984	11.5049	11.9185	3.8753
202	3	7	2	1	321.8564	56	1	800	11650.2844	0.0028	11.9447	12.7578	13.4642	13.7904	3.8753
202	3	8	2	1	314.2356	56	1	800	11650.2844	0.0028	13.8107	14.6238	15.3302	15.6481	3.8753
202	3	9	2	1	548.7181	29	1	800	11650.2844	0.0028	15.6769	16.4899	17.1963	17.7489	3.8753
202	3	10	2	1	291.4244	56	0	800	11650.2844	0.0028	17.7697	18.5827	19.289	19.584	3.8753
202	3	11	2	1	203.39	56	1	800	11650.2844	0.0028	0.028	0.8411	1.5608	1.7678	3.8753
202	3	12	2	1	413.3471	29	1	800	11650.2844	0.0028	1.8008	2.6139	3.3204	3.7373	3.8753
202	3	1	3	1	372.4328	29	1	800	11650.2844	0.0028	0.0166	0.8295	1.5377	1.9139	3.7492
202	3	2	3	1	307.9369	56	1	800	11650.2844	0.0028	1.9357	2.7488	3.4553	3.767	3.7492
202	3	3	3	1	367.4516	56	0	800	11650.2844	0.0028	3.7885	4.6016	5.3082	5.6792	3.7492
202	3	4	3	1	549.8092	56	1	800	11650.2844	0.0028	0.0323	0.8454	1.5651	2.1185	3.7492
202	3	5	3	1	284.9341	56	1	800	11650.2844	0.0028	2.1385	2.9514	3.6723	3.9611	3.7492
202	3	6	3	1	364.5385	56	0	800	11650.2844	0.0028	3.9913	4.8041	5.5105	5.8789	3.7492
202	3	7	3	1	700.8307	1	0	800	11650.2844	0.0028	0.0243	0.8374	1.5571	2.2613	3.7492
202	3	8	3	1	359.5471	56	1	800	11650.2844	0.0028	0.0267	0.8398	1.5595	1.9229	3.7492
202	3	9	3	1	482.4574	56	1	800	11650.2844	0.0028	1.9462	2.7594	3.4657	3.9518	3.7492
202	3	10	3	1	403.5398	29	1	800	11650.2844	0.0028	3.9721	4.7852	5.4916	5.8998	3.7492
202	3	11	3	1	393.442	56	1	800	11650.2844	0.0028	5.9315	6.7445	7.4511	7.8483	3.7492
202	3	12	3	1	411.254	56	1	800	11650.2844	0.0028	7.8786	8.6906	9.3971	9.8126	3.7492
202	3	1	4	1	407.5091	56	1	800	11650.2844	0.0028	0.0114	0.8243	1.5307	1.9418	9.8232
202	3	2	4	1	426.7111	56	0	800	11650.2844	0.0028	1.9705	2.7836	3.49	3.9205	9.8232
202	3	3	4	1	231.269	56	1	800	11650.2844	0.0028	0.0229	0.836	1.5558	1.7908	9.8232
202	3	4	4	1	339.7775	56	1	800	11650.2844	0.0028	1.8223	2.6354	3.3418	3.6851	9.8232
202	3	5	4	1	358.1752	29	1	800	11650.2844	0.0028	3.715	4.5283	5.2346	5.5967	9.8232
202	3	6	4	1	309.6795	56	1	800	11650.2844	0.0028	5.6211	6.4342	7.1406	7.4543	9.8232
202	3	7	4	1	431.597	29	1	800	11650.2844	0.0028	7.4738	8.287	8.9934	9.4286	9.8232
202	3	8	4	1	338.1836	56	1	800	11650.2844	0.0028	9.4598	10.273	10.9794	11.3213	9.8232
202	3	9	4	1	332.6414	56	0	800	11650.2844	0.0028	11.3525	12.1657	12.8867	13.2237	9.8232
202	3	10	4	1	702.5625	1	0	800	11650.2844	0.0028	0.0361	0.8492	1.5689	2.2748	9.8232
202	3	11	4	1	475.1171	56	1	800	11650.2844	0.0028	0.0242	0.8373	1.5571	2.0358	9.8232
202	3	12	4	1	470.3326	29	1	800	11650.2844	0.0028	2.0636	2.8767	3.5831	4.0569	9.8232
202	3	1	5	1	446.5691	29	1	800	11650.2844	0.0028	0.0167	0.8281	1.5345	1.9849	4.067
202	3	2	5	1	476.5277	29	1	800	11650.2844	0.0028	2.0144	2.8274	3.5339	4.0145	4.067
202	3	3	5	1	422.3706	56	1	800	11650.2844	0.0028	4.0403	4.8534	5.5598	5.9864	4.067
202	3	4	5	1	697.4523	1	0	800	11650.2844	0.0028	6.0131	6.8261	7.5325	8.234	4.067
202	3	5	5	1	356.7354	56	1	800	11650.2844	0.0028	0.0357	0.8477	1.5674	1.9278	4.067
202	3	6	5	1	309.2165	56	1	800	11650.2844	0.0028	1.954	2.767	3.4734	3.7863	4.067
202	3	7	5	1	309.3616	56	1	800	11650.2844	0.0028	3.8066	4.6197	5.3263	5.6393	4.067
202	3	8	5	1	358.3706	29	0	800	11650.2844	0.0028	5.6594	6.4725	7.1789	7.5417	4.067
202	3	9	5	1	437.514	56	1	800	11650.2844	0.0028	0.0361	0.8493	1.5689	2.0099	4.067
202	3	10	5	1	521.3185	56	1	800	11650.2844	0.0028	2.0354	2.8485	3.555	4.0799	4.067
202	3	11	5	1	356.6013	56	1	800	11650.2844	0.0028	4.1014	4.9145	5.6209	5.9815	4.067
202	3	12	5	1	374.9536	29	1	800	11650.2844	0.0028	6.0075	6.8206	7.527	7.9057	4.067
202	3	1	6	1	367.8919	56	1	800	11650.2844	0.0028	0.0199	0.8317	1.538	1.9094	7.9185
202	3	2	6	1	431.241	56	1	800	11650.2844	0.0028	1.9381	2.751	3.4575	3.8924	7.9185
202	3	3	6	1	350.8643	56	1	800	11650.2844	0.0028	3.9239	4.737	5.4434	5.7983	7.9185
202	3	4	6	1	310.1062	56	1	800	11650.2844	0.0028	5.83	6.643	7.3494	7.6632	7.9185
202	3	5	6	1	353.7532	29	1	800	11650.2844	0.0028	7.6961	8.5103	9.2156	9.573	7.9185
202	3	6	6	1	372.3911	29	1	800	11650.2844	0.0028	9.602	10.4151	11.1216	11.4978	7.9185
202	3	7	6	1	304.6546	56	1	800	11650.2844	0.0028	11.5215	12.3345	13.0409	13.3503	7.9185
202	3	8	6	1	362.4549	29	1	800	11650.2844	0.0028	13.3742	14.1872	14.8937	15.2598	7.9185
202	3	9	6	1	280.6863	56	1	800	11650.2844	0.0028	15.2803	16.0933	16.7997	17.0841	7.9185
202	3	10	6	1	406.9606	29	1	800	11650.2844	0.0028	17.1074	17.9195	18.6258	19.0365	7.9185
202	3	11	6	1	273.9403	56	1	800	11650.2844	0.0028	19.0657	19.8787	20.5852	20.8626	7.9185
202	3	12	6	1	293.1936	56	1	800	11650.2844	0.0028	20.8917	21.7048	22.4113	22.7085	7.9185
202	4	1	1	2	396.2832	56	1	800	11885.3286	0.0029	0.0146	0.8286	1.534	1.9341	0
202	4	2	1	2	352.3515	56	0	800	11885.3286	0.0029	1.9605	2.7736	3.4801	3.836	0
202	4	3	1	2	287.309	56	1	800	11885.3286	0.0029	0.0242	0.8376	1.5571	1.8482	0
202	4	4	1	2	222.0612	56	1	800	11885.3286	0.0029	1.8769	2.69	3.3964	3.6229	0
202	4	5	1	2	305.1584	56	1	800	11885.3286	0.0029	3.6499	4.4628	5.1694	5.4794	0
202	4	6	1	2	481.4172	56	1	800	11885.3286	0.0029	5.5025	6.3155	7.022	7.5072	0
202	4	7	1	2	293.7509	56	1	800	11885.3286	0.0029	7.5286	8.3416	9.0479	9.3452	0
202	4	8	1	2	360.0582	56	1	800	11885.3286	0.0029	9.3678	10.1809	10.8873	11.2512	0
202	4	9	1	2	281.7434	56	1	800	11885.3286	0.0029	11.2739	12.087	12.7934	13.0791	0
202	4	10	1	2	237.3203	56	0	800	11885.3286	0.0029	13.1	13.9133	14.6195	14.8606	0
202	4	11	1	2	698.6457	1	0	800	11885.3286	0.0029	0.0345	0.8476	1.5674	2.2694	0
202	4	12	1	2	649.9334	56	1	800	11885.3286	0.0029	0.0304	0.8434	1.5632	2.2167	0
202	4	13	1	2	377.1225	56	1	800	11885.3286	0.0029	2.243	3.0561	3.7625	4.144	0
202	4	14	1	2	448.4736	29	1	800	11885.3286	0.0029	4.1759	4.9887	5.6952	6.1474	0
202	4	15	1	2	643.7757	29	1	800	11885.3286	0.0029	6.175	6.9882	7.6945	8.3418	0
202	4	16	1	2	480.3229	29	1	800	11885.3286	0.0029	8.3609	9.174	9.8805	10.3646	0
202	4	17	1	2	409.7503	29	1	800	11885.3286	0.0029	10.3869	11.2	11.9065	12.3215	0
202	4	18	1	2	326.9039	56	1	800	11885.3286	0.0029	12.3465	13.1595	13.8659	14.1965	0
202	4	19	1	2	428.7262	29	1	800	11885.3286	0.0029	14.2257	15.0388	15.7453	16.1777	0
202	4	20	1	2	694.9852	29	0	800	11885.3286	0.0029	16.1984	17.0115	17.7179	18.4165	0
202	4	21	1	2	382.8979	56	1	800	11885.3286	0.0029	0.033	0.8461	1.5659	1.9544	0
202	4	22	1	2	607.1561	29	1	800	11885.3286	0.0029	1.9802	2.7923	3.4986	4.1093	0
202	4	23	1	2	591.985	29	1	800	11885.3286	0.0029	4.1383	4.9514	5.6579	6.254	0
202	4	24	1	2	340.3402	29	1	800	11885.3286	0.0029	6.2843	7.0974	7.8038	8.1478	0
202	4	25	1	2	367.7452	56	1	800	11885.3286	0.0029	8.177	8.9901	9.6965	10.0681	0
202	4	26	1	2	369.1672	29	1	800	11885.3286	0.0029	10.0967	10.9096	11.6159	11.9895	0
202	4	27	1	2	399.8636	29	1	800	11885.3286	0.0029	12.0158	12.8288	13.5353	13.939	0
202	4	28	1	2	440.2631	56	1	800	11885.3286	0.0029	13.9618	14.7749	15.4813	15.9255	0
202	4	29	1	2	392.7645	56	1	800	11885.3286	0.0029	15.9478	16.7609	17.4674	17.8637	0
202	4	30	1	2	371.5693	29	1	800	11885.3286	0.0029	17.8941	18.7069	19.4289	19.8041	0
202	5	1	1	2	595.3991	29	1	800	11948.7877	0.0029	0.0133	0.8248	1.5311	2.1303	0
202	5	2	1	2	363.681	56	1	800	11948.7877	0.0029	2.1575	2.9706	3.6771	4.0444	0
202	5	3	1	2	520.7544	29	1	800	11948.7877	0.0029	4.0636	4.8766	5.5831	6.1077	0
202	5	4	1	2	467.7566	56	1	800	11948.7877	0.0029	6.1296	6.9427	7.6491	8.1207	0
202	5	5	1	2	551.3847	56	0	800	11948.7877	0.0029	8.1427	8.9554	9.6618	10.2171	0
202	5	6	1	2	701.7936	1	0	800	11948.7877	0.0029	0.0268	0.84	1.5596	2.2647	0
202	5	7	1	2	700.3703	1	0	800	11948.7877	0.0029	0.0306	0.8436	1.5633	2.267	0
202	5	8	1	2	397.0878	29	1	800	11948.7877	0.0029	0.0352	0.8633	1.5813	1.9832	0
202	5	9	1	2	698.839	1	0	800	11948.7877	0.0029	2.008	2.8209	3.5274	4.2296	0
202	5	10	1	2	663.942	56	1	800	11948.7877	0.0029	0.0344	0.8477	1.5672	2.2347	0
202	5	11	1	2	505.4768	56	0	800	11948.7877	0.0029	2.2604	3.0734	3.7799	4.289	0
202	5	12	1	2	582.9911	56	1	800	11948.7877	0.0029	0.0329	0.8437	1.5636	2.1514	0
202	5	1	2	2	624.7325	29	1	800	11948.7877	0.0029	0.0158	0.8287	1.5502	2.1794	2.1625
202	5	2	2	2	292.0062	56	1	800	11948.7877	0.0029	2.2016	3.0147	3.7212	4.0169	2.1625
202	5	3	2	2	480.9681	29	1	800	11948.7877	0.0029	4.041	4.8541	5.5605	6.0453	2.1625
202	5	4	2	2	338.4459	56	1	800	11948.7877	0.0029	6.067	6.8801	7.5865	7.9284	2.1625
202	5	5	2	2	445.4557	29	1	800	11948.7877	0.0029	7.9598	8.773	9.4793	9.9289	2.1625
202	5	6	2	2	321.6143	56	1	800	11948.7877	0.0029	9.9592	10.7721	11.4787	11.8039	2.1625
202	5	7	2	2	667.8972	29	1	800	11948.7877	0.0029	11.8251	12.6383	13.3447	14.0166	2.1625
202	5	8	2	2	384.7028	29	1	800	11948.7877	0.0029	14.0377	14.8508	15.5573	15.9458	2.1625
202	5	9	2	2	443.0595	29	1	800	11948.7877	0.0029	15.9705	16.7835	17.4903	17.9369	2.1625
202	5	10	2	2	463.4579	29	1	800	11948.7877	0.0029	17.9567	18.7697	19.476	19.9433	2.1625
202	5	11	2	2	366.7066	29	1	800	11948.7877	0.0029	19.9692	20.7822	21.4887	21.8591	2.1625
202	5	12	2	2	351.4048	29	1	800	11948.7877	0.0029	21.8885	22.7016	23.4081	23.7632	2.1625
202	6	1	1	2	437.2953	56	1	800	12049.3148	0.0029	0.0123	0.8246	1.5309	1.972	0
202	6	2	1	2	344.3409	29	1	800	12049.3148	0.0029	1.9974	2.8105	3.5169	3.8649	0
202	6	3	1	2	284.3883	56	1	800	12049.3148	0.0029	3.8901	4.7032	5.4096	5.6975	0
202	6	4	1	2	533.1162	56	1	800	12049.3148	0.0029	5.7163	6.5293	7.2358	7.7726	0
202	6	5	1	2	456.4363	56	1	800	12049.3148	0.0029	7.7956	8.6088	9.3151	9.7752	0
202	6	6	1	2	413.856	29	1	800	12049.3148	0.0029	9.7949	10.6079	11.3144	11.732	0
202	6	7	1	2	445.7231	29	1	800	12049.3148	0.0029	11.7543	12.5673	13.2738	13.723	0
202	6	8	1	2	548.2338	56	0	800	12049.3148	0.0029	13.7536	14.5668	15.2731	15.8248	0
202	6	9	1	2	293.113	56	1	800	12049.3148	0.0029	0.0235	0.8513	1.5696	1.8664	0
202	6	10	1	2	340.9363	29	1	800	12049.3148	0.0029	1.8895	2.7025	3.409	3.7537	0
202	6	11	1	2	272.5061	56	1	800	12049.3148	0.0029	3.7822	4.5953	5.3018	5.5779	0
202	6	12	1	2	373.2393	29	1	800	12049.3148	0.0029	5.6084	6.4214	7.1279	7.5047	0
202	6	13	1	2	364.0576	56	1	800	12049.3148	0.0029	7.5277	8.3408	9.0623	9.4309	0
202	6	14	1	2	397.5196	29	1	800	12049.3148	0.0029	9.4621	10.2735	10.9801	11.3812	0
202	6	15	1	2	384.7755	29	1	800	12049.3148	0.0029	11.4064	12.2195	12.9259	13.3151	0
202	6	16	1	2	345.9327	56	1	800	12049.3148	0.0029	13.3392	14.1522	14.8589	15.2084	0
202	6	17	1	2	391.3492	56	1	800	12049.3148	0.0029	15.2319	16.0449	16.7514	17.1465	0
202	6	18	1	2	403.9488	29	1	800	12049.3148	0.0029	17.1783	17.991	18.6974	19.1054	0
202	6	19	1	2	357.7318	56	1	800	12049.3148	0.0029	19.1372	19.9503	20.6568	21.0184	0
202	6	20	1	2	366.6675	56	1	800	12049.3148	0.0029	21.0432	21.8564	22.5628	22.9333	0
202	6	21	1	2	564.7996	29	1	800	12049.3148	0.0029	22.9626	23.7758	24.4822	25.0504	0
202	6	22	1	2	410.8252	29	1	800	12049.3148	0.0029	25.0819	25.8953	26.6016	27.017	0
202	6	23	1	2	440.6813	56	1	800	12049.3148	0.0029	27.0413	27.8544	28.5609	29.0052	0
202	6	24	1	2	371.2798	29	0	800	12049.3148	0.0029	29.0274	29.8404	30.5469	30.9225	0
202	6	25	1	2	339.3406	56	0	800	12049.3148	0.0029	0.0353	0.8484	1.5682	1.911	0
202	6	26	1	2	701.8374	1	0	800	12049.3148	0.0029	0.0256	0.8388	1.5585	2.2636	0
202	6	27	1	2	353.6701	56	1	800	12049.3148	0.0029	0.0235	0.8367	1.5564	1.9137	0
202	6	28	1	2	345.3579	56	1	800	12049.3148	0.0029	1.943	2.7561	3.4627	3.812	0
202	6	29	1	2	337.3532	56	1	800	12049.3148	0.0029	3.8357	4.6488	5.3552	5.6961	0
202	6	30	1	2	485.1976	29	1	800	12049.3148	0.0029	5.7284	6.5417	7.248	7.7368	0
202	7	1	1	3	698.1186	1	0	800	12149.5622	0.0028	0.0154	0.8284	1.5349	2.2364	0
202	7	2	1	3	242.8546	56	1	800	12149.5622	0.0028	0.0322	0.8603	1.5784	1.825	0
202	7	3	1	3	372.4705	56	1	800	12149.5622	0.0028	1.8449	2.6581	3.3645	3.7406	0
202	7	4	1	3	362.8802	56	1	800	12149.5622	0.0028	3.7643	4.5774	5.2839	5.6503	0
202	7	5	1	3	267.9179	56	1	800	12149.5622	0.0028	5.6704	6.4835	7.1899	7.4616	0
202	7	6	1	3	696.8121	1	0	800	12149.5622	0.0028	7.4832	8.2962	9.0037	9.7043	0
202	7	7	1	3	296.442	56	0	800	12149.5622	0.0028	0.0332	0.8463	1.5661	1.8662	0
202	7	8	1	3	480.2846	29	1	800	12149.5622	0.0028	0.0242	0.8372	1.557	2.0408	0
202	7	9	1	3	317.9261	56	1	800	12149.5622	0.0028	2.0635	2.8767	3.5833	3.9054	0
202	7	10	1	3	312.1053	56	1	800	12149.5622	0.0028	3.9299	4.7426	5.4491	5.7647	0
202	7	11	1	3	382.2515	56	1	800	12149.5622	0.0028	5.7956	6.6087	7.3151	7.7009	0
202	7	12	1	3	357.5133	29	1	800	12149.5622	0.0028	7.7283	8.5414	9.2478	9.6088	0
202	7	1	2	3	393.0382	29	1	800	12149.5622	0.0028	0.0123	0.8255	1.5318	1.9286	9.6192
202	7	2	2	3	394.5319	29	1	800	12149.5622	0.0028	1.9583	2.7714	3.4779	3.876	9.6192
202	7	3	2	3	328.2564	56	1	800	12149.5622	0.0028	3.9044	4.7175	5.4239	5.7559	9.6192
202	7	4	2	3	336.7139	56	1	800	12149.5622	0.0028	5.7838	6.5969	7.3033	7.6437	9.6192
202	7	5	2	3	350.9654	56	1	800	12149.5622	0.0028	7.6632	8.4764	9.1981	9.5527	9.6192
202	7	6	2	3	366.7774	29	1	800	12149.5622	0.0028	9.5825	10.3956	11.1021	11.4725	9.6192
202	7	7	2	3	479.4603	29	1	800	12149.5622	0.0028	11.5019	12.315	13.0214	13.5047	9.6192
202	7	8	2	3	331.8636	56	1	800	12149.5622	0.0028	13.5296	14.3412	15.0475	15.3829	9.6192
202	7	9	2	3	306.9537	56	1	800	12149.5622	0.0028	15.4074	16.2204	16.9268	17.2378	9.6192
202	7	10	2	3	563.0595	29	1	800	12149.5622	0.0028	17.2616	18.0732	18.7796	19.3464	9.6192
202	7	11	2	3	328.2647	56	1	800	12149.5622	0.0028	19.366	20.1791	20.8856	21.2177	9.6192
202	7	12	2	3	320.7475	29	1	800	12149.5622	0.0028	21.2454	22.0585	22.7649	23.0892	9.6192
202	8	1	1	3	399.6148	29	1	800	12234.455	0.0029	0.0129	0.8272	1.5454	1.9494	0
202	8	2	1	3	286.3077	56	1	800	12234.455	0.0029	1.9718	2.7849	3.4914	3.7815	0
202	8	3	1	3	361.5154	29	1	800	12234.455	0.0029	3.8111	4.6242	5.3307	5.6957	0
202	8	4	1	3	393.3308	29	1	800	12234.455	0.0029	5.7173	6.5303	7.2367	7.6337	0
202	8	5	1	3	264.9179	56	1	800	12234.455	0.0029	7.6632	8.4763	9.1829	9.4525	0
202	8	6	1	3	362.357	29	1	800	12234.455	0.0029	9.4759	10.289	10.9955	11.3615	0
202	8	7	1	3	357.1514	56	1	800	12234.455	0.0029	11.382	12.1951	12.9016	13.2624	0
202	8	8	1	3	273.2276	29	0	800	12234.455	0.0029	13.2881	14.1012	14.8076	15.0844	0
202	8	9	1	3	647.6276	56	1	800	12234.455	0.0029	0.0249	0.838	1.5588	2.2109	0
202	8	10	1	3	507.9898	56	1	800	12234.455	0.0029	2.2375	3.0506	3.7571	4.2688	0
202	8	11	1	3	363.6706	56	1	800	12234.455	0.0029	4.2903	5.1032	5.8098	6.1771	0
202	8	12	1	3	433.9111	29	1	800	12234.455	0.0029	6.1962	7.0093	7.7157	8.1534	0
202	8	13	1	3	427.1713	29	1	800	12234.455	0.0029	8.1822	8.9953	9.7017	10.1329	0
202	8	14	1	3	281.0875	56	1	800	12234.455	0.0029	10.1559	10.9681	11.6746	11.9594	0
202	8	15	1	3	510.0786	29	1	800	12234.455	0.0029	11.9811	12.7941	13.5005	14.0143	0
202	8	16	1	3	345.5492	56	1	800	12234.455	0.0029	14.047	14.8602	15.5665	15.9166	0
202	8	17	1	3	370.1575	56	1	800	12234.455	0.0029	15.9397	16.7528	17.4594	17.8334	0
202	8	18	1	3	327.9968	56	1	800	12234.455	0.0029	17.8592	18.6741	19.392	19.7237	0
202	8	19	1	3	579.1584	29	1	800	12234.455	0.0029	19.7519	20.5649	21.2714	21.8543	0
202	8	20	1	3	344.2636	29	1	800	12234.455	0.0029	21.8845	22.6976	23.404	23.7523	0
202	8	21	1	3	350.2239	29	1	800	12234.455	0.0029	23.7772	24.5902	25.2968	25.6508	0
202	8	22	1	3	440.2596	29	1	800	12234.455	0.0029	25.6699	26.4835	27.1897	27.6338	0
202	8	23	1	3	623.0523	29	1	800	12234.455	0.0029	27.6561	28.469	29.1754	29.8022	0
202	8	24	1	3	335.9674	29	1	800	12234.455	0.0029	29.8287	30.6416	31.3481	31.6882	0
202	8	25	1	3	343.4173	29	1	800	12234.455	0.0029	31.708	32.521	33.2275	33.5745	0
202	8	26	1	3	362.9942	29	1	800	12234.455	0.0029	33.6007	34.4138	35.1346	35.5021	0
202	8	27	1	3	350.6727	56	1	800	12234.455	0.0029	35.5346	36.3464	37.0529	37.4074	0
202	8	28	1	3	556.546	56	1	800	12234.455	0.0029	37.4394	38.2525	38.959	39.5193	0
202	8	29	1	3	557.656	29	1	800	12234.455	0.0029	39.5454	40.3585	41.0649	41.6267	0
202	8	30	1	3	396.8233	29	1	800	12234.455	0.0029	41.6513	42.4644	43.1709	43.5741	0
202	9	1	1	3	698.7418	1	0	800	12298.9275	0.0029	0.0136	0.8266	1.533	2.2353	0
202	9	2	1	3	702.6544	1	0	800	12298.9275	0.0029	0.0278	0.8408	1.5606	2.2665	0
202	9	3	1	3	406.7418	56	1	800	12298.9275	0.0029	0.0302	0.8432	1.5629	1.9732	0
202	9	4	1	3	370.8976	29	1	800	12298.9275	0.0029	2.0027	2.8157	3.5226	3.8985	0
202	9	5	1	3	287.3095	56	1	800	12298.9275	0.0029	3.922	4.7351	5.4416	5.7325	0
202	9	6	1	3	475.1333	56	1	800	12298.9275	0.0029	5.7616	6.5745	7.281	7.7597	0
202	9	7	1	3	462.8244	56	1	800	12298.9275	0.0029	7.7876	8.6008	9.307	9.7734	0
202	9	8	1	3	426.5196	56	0	800	12298.9275	0.0029	9.8001	10.6132	11.3197	11.7499	0
202	9	9	1	3	532.0652	29	1	800	12298.9275	0.0029	0.0283	0.8413	1.5611	2.0972	0
202	9	10	1	3	702.5313	1	0	800	12298.9275	0.0029	2.1209	2.934	3.6404	4.3463	0
202	9	11	1	3	344.1831	56	1	800	12298.9275	0.0029	0.0266	0.8397	1.5591	1.9076	0
202	9	12	1	3	374.1265	56	1	800	12298.9275	0.0029	1.9322	2.7453	3.4518	3.8295	0
202	9	1	2	3	394.1392	56	1	800	12298.9275	0.0029	0.0165	0.8288	1.5352	1.9332	3.8408
202	9	2	2	3	605.0096	29	1	800	12298.9275	0.0029	1.9617	2.776	3.4813	4.0899	3.8408
202	9	3	2	3	504.1825	29	1	800	12298.9275	0.0029	4.121	4.9341	5.6406	6.1489	3.8408
202	9	4	2	3	459.8794	29	1	800	12298.9275	0.0029	6.1736	6.9867	7.6932	8.157	3.8408
202	9	5	2	3	697.2897	1	0	800	12298.9275	0.0029	8.1863	8.9995	9.7059	10.407	3.8408
202	9	6	2	3	349.6725	56	1	800	12298.9275	0.0029	0.0349	0.848	1.5677	1.9213	3.8408
202	9	7	2	3	452.5699	29	1	800	12298.9275	0.0029	1.9411	2.754	3.4605	3.9167	3.8408
202	9	8	2	3	262.811	56	1	800	12298.9275	0.0029	3.9403	4.7536	5.4602	5.7274	3.8408
202	9	9	2	3	328.8145	56	1	800	12298.9275	0.0029	5.753	6.5661	7.2726	7.605	3.8408
202	9	10	2	3	375.4234	56	1	800	12298.9275	0.0029	7.6324	8.4455	9.152	9.5311	3.8408
202	9	11	2	3	285.7397	56	1	800	12298.9275	0.0029	9.552	10.3649	11.0713	11.3607	3.8408
202	9	12	2	3	382.9152	56	1	800	12298.9275	0.0029	11.3913	12.2043	12.9255	13.3132	3.8408
202	9	1	3	3	351.4517	56	1	800	12298.9275	0.0029	0.0166	0.8296	1.536	1.8912	13.3257
202	9	2	3	3	273.4339	56	1	800	12298.9275	0.0029	1.9093	2.7223	3.429	3.7059	13.3257
202	9	3	3	3	362.5264	29	1	800	12298.9275	0.0029	3.7353	4.5484	5.2548	5.6212	13.3257
202	9	4	3	3	317.844	56	1	800	12298.9275	0.0029	5.6414	6.4549	7.1609	7.4833	13.3257
202	9	5	3	3	260.883	56	1	800	12298.9275	0.0029	7.5074	8.3205	9.0269	9.2915	13.3257
202	9	6	3	3	313.6382	56	1	800	12298.9275	0.0029	9.3201	10.1333	10.8397	11.1571	13.3257
202	9	7	3	3	367.7486	56	1	800	12298.9275	0.0029	11.1863	11.9993	12.7058	13.0775	13.3257
202	9	8	3	3	359.0866	29	0	800	12298.9275	0.0029	13.1057	13.9187	14.6265	14.9894	13.3257
202	9	9	3	3	460.4579	29	1	800	12298.9275	0.0029	0.0303	0.8434	1.5632	2.0273	13.3257
202	9	10	3	3	354.4163	29	1	800	12298.9275	0.0029	2.0563	2.8694	3.5758	3.934	13.3257
202	9	11	3	3	303.6903	29	1	800	12298.9275	0.0029	3.9625	4.7755	5.4819	5.79	13.3257
202	9	12	3	3	379.412	29	1	800	12298.9275	0.0029	5.8151	6.6284	7.3348	7.718	13.3257
202	9	1	4	3	366.3803	56	1	800	12298.9275	0.0029	0.017	0.83	1.5364	1.9065	7.7546
202	9	2	4	3	342.5167	56	1	800	12298.9275	0.0029	1.9365	2.7494	3.4558	3.8028	7.7546
202	9	3	4	3	253.8814	56	1	800	12298.9275	0.0029	3.8291	4.6421	5.3486	5.6065	7.7546
202	9	4	4	3	428.0575	56	1	800	12298.9275	0.0029	5.6296	6.4416	7.148	7.5799	7.7546
202	9	5	4	3	330.1219	29	1	800	12298.9275	0.0029	7.6011	8.4142	9.1207	9.4547	7.7546
202	9	6	4	3	370.383	29	1	800	12298.9275	0.0029	9.4805	10.2939	11	11.3741	7.7546
202	9	7	4	3	432.302	29	1	800	12298.9275	0.0029	11.4	12.213	12.9194	13.3557	7.7546
202	9	8	4	3	536.4175	29	1	800	12298.9275	0.0029	13.3861	14.1991	14.9054	15.4459	7.7546
202	9	9	4	3	385.9611	56	1	800	12298.9275	0.0029	15.4653	16.2783	16.9848	17.3746	7.7546
202	9	10	4	3	321.2482	29	1	800	12298.9275	0.0029	17.398	18.2111	18.9174	19.2424	7.7546
202	9	11	4	3	396.9796	56	1	800	12298.9275	0.0029	19.264	20.0771	20.7836	21.1849	7.7546
202	9	12	4	3	678.4478	56	0	800	12298.9275	0.0029	21.2101	22.0244	22.7296	23.4115	7.7546
202	9	1	5	3	354.6218	29	1	800	12298.9275	0.0029	0.0095	0.8224	1.5289	1.8874	0.0114
202	9	2	5	3	364.3161	29	1	800	12298.9275	0.0029	1.9155	2.7285	3.4349	3.8029	0.0114
202	9	3	5	3	314.8762	29	1	800	12298.9275	0.0029	3.8349	4.6478	5.3543	5.6734	0.0114
202	9	4	5	3	388.6873	29	1	800	12298.9275	0.0029	5.7018	6.5143	7.2204	7.6126	0.0114
202	9	5	5	3	287.4708	56	1	800	12298.9275	0.0029	7.6335	8.4467	9.153	9.4441	0.0114
202	9	6	5	3	344.3435	56	1	800	12298.9275	0.0029	9.474	10.286	10.9925	11.3412	0.0114
202	9	7	5	3	314.3708	29	1	800	12298.9275	0.0029	11.3657	12.1787	12.8852	13.2036	0.0114
202	9	8	5	3	319.6869	56	1	800	12298.9275	0.0029	13.2318	14.0449	14.7513	15.0746	0.0114
202	9	9	5	3	355.939	29	1	800	12298.9275	0.0029	15.0977	15.9108	16.6173	16.9769	0.0114
202	9	10	5	3	320.3848	29	0	800	12298.9275	0.0029	17.0038	17.817	18.5233	18.8472	0.0114
202	9	11	5	3	410.0079	56	1	800	12298.9275	0.0029	0.0264	0.8394	1.5591	1.9737	0.0114
202	9	12	5	3	475.4313	56	1	800	12298.9275	0.0029	1.9993	2.8122	3.5185	3.9986	0.0114
202	9	1	6	3	388.5478	56	1	800	12298.9275	0.0029	0.0147	0.8277	1.5341	1.9262	4.01
202	9	2	6	3	695.5075	56	1	800	12298.9275	0.0029	1.9472	2.7604	3.4668	4.1658	4.01
202	9	3	6	3	410.9087	29	1	800	12298.9275	0.0029	4.1865	5.0005	5.7061	6.1214	4.01
202	9	4	6	3	446.2724	29	1	800	12298.9275	0.0029	6.1459	6.959	7.6655	8.1158	4.01
202	9	5	6	3	404.77	29	1	800	12298.9275	0.0029	8.1452	8.9583	9.6648	10.0732	4.01
202	9	6	6	3	368.5887	56	1	800	12298.9275	0.0029	10.0913	10.9044	11.6109	11.9832	4.01
202	9	7	6	3	302.3515	56	1	800	12298.9275	0.0029	12.0107	12.8237	13.5448	13.8528	4.01
202	9	8	6	3	437.1501	29	1	800	12298.9275	0.0029	13.8787	14.69	15.3964	15.8373	4.01
202	9	9	6	3	315.293	56	1	800	12298.9275	0.0029	15.8628	16.6758	17.3823	17.7016	4.01
202	9	10	6	3	279.7522	56	1	800	12298.9275	0.0029	17.7289	18.5419	19.2488	19.5321	4.01
202	9	11	6	3	344.2989	56	1	800	12298.9275	0.0029	19.5549	20.3679	21.0744	21.4231	4.01
202	9	12	6	3	322.5585	56	1	800	12298.9275	0.0029	21.4479	22.2608	22.9671	23.2936	4.01
202	10	1	1	4	365.9578	56	1	800	12470.405	0.003	0.0111	0.824	1.5305	1.8999	0
202	10	2	1	4	462.6556	29	1	800	12470.405	0.003	1.9304	2.7434	3.4498	3.9165	0
202	10	3	1	4	285.6261	56	1	800	12470.405	0.003	3.9433	4.7566	5.4626	5.7518	0
202	10	4	1	4	393.6903	29	1	800	12470.405	0.003	5.7824	6.5955	7.302	7.6994	0
202	10	5	1	4	274.1965	56	1	800	12470.405	0.003	7.7417	8.5548	9.2616	9.5392	0
202	10	6	1	4	349.0863	56	1	800	12470.405	0.003	9.5679	10.3809	11.0874	11.4405	0
202	10	7	1	4	334.4937	56	1	800	12470.405	0.003	11.4606	12.2737	12.9938	13.3327	0
202	10	8	1	4	333.1602	56	1	800	12470.405	0.003	13.3683	14.1797	14.8861	15.2229	0
202	10	9	1	4	397.1995	29	1	800	12470.405	0.003	15.246	16.0591	16.7655	17.1674	0
202	10	10	1	4	399.1544	29	1	800	12470.405	0.003	17.1921	18.0052	18.7115	19.1146	0
202	10	11	1	4	381.0883	56	1	800	12470.405	0.003	19.1382	19.9514	20.6576	21.0448	0
202	10	12	1	4	387.7783	56	1	800	12470.405	0.003	21.072	21.8839	22.5903	22.9817	0
202	10	13	1	4	280.3552	56	1	800	12470.405	0.003	23.0035	23.8166	24.523	24.807	0
202	10	14	1	4	291.5956	56	1	800	12470.405	0.003	24.8295	25.6426	26.3491	26.6455	0
202	10	15	1	4	342.3957	29	1	800	12470.405	0.003	26.6689	27.4822	28.1887	28.535	0
202	10	16	1	4	445.3427	29	1	800	12470.405	0.003	28.5618	29.3765	30.0945	30.5434	0
202	10	17	1	4	286.0079	56	1	800	12470.405	0.003	30.5743	31.3874	32.0939	32.3838	0
202	10	18	1	4	267.0928	56	1	800	12470.405	0.003	32.4138	33.2269	33.9332	34.2038	0
202	10	19	1	4	362.697	56	1	800	12470.405	0.003	34.2266	35.0396	35.746	36.1126	0
202	10	20	1	4	467.1021	29	1	800	12470.405	0.003	36.1328	36.9459	37.6522	38.1234	0
202	10	21	1	4	340.1454	29	1	800	12470.405	0.003	38.1452	38.9583	39.6648	40.0085	0
202	10	22	1	4	379.4988	29	1	800	12470.405	0.003	40.0379	40.851	41.5575	41.9406	0
202	10	23	1	4	481.7517	29	1	800	12470.405	0.003	41.9707	42.7837	43.4902	43.9759	0
202	10	24	1	4	360.8813	29	1	800	12470.405	0.003	43.9967	44.8097	45.5164	45.8811	0
202	10	25	1	4	403.6156	56	1	800	12470.405	0.003	45.9028	46.7158	47.4222	47.8296	0
202	10	26	1	4	343.7542	29	1	800	12470.405	0.003	47.8487	48.6618	49.3683	49.7157	0
202	10	27	1	4	326.4344	56	1	800	12470.405	0.003	49.7416	50.5546	51.261	51.5913	0
202	10	28	1	4	349.8816	56	1	800	12470.405	0.003	51.6209	52.434	53.1405	53.4946	0
202	10	29	1	4	469.8703	56	1	800	12470.405	0.003	53.5414	54.3534	55.0597	55.5333	0
202	10	30	1	4	339.7472	56	1	800	12470.405	0.003	55.5529	56.366	57.0724	57.416	0
202	11	1	1	4	626.6094	29	1	800	12536.0236	0.0029	0.0105	0.8234	1.5299	2.1604	0
202	11	2	1	4	349.2487	29	0	800	12536.0236	0.0029	2.183	2.996	3.7025	4.0554	0
202	11	3	1	4	524.7124	56	1	800	12536.0236	0.0029	0.0261	0.8389	1.5587	2.0874	0
202	11	4	1	4	334.2443	56	1	800	12536.0236	0.0029	2.1185	2.9316	3.638	3.9757	0
202	11	5	1	4	344.5308	56	1	800	12536.0236	0.0029	3.9979	4.811	5.5175	5.8655	0
202	11	6	1	4	233.0729	56	1	800	12536.0236	0.0029	5.8908	6.7037	7.4102	7.6476	0
202	11	7	1	4	390.9269	56	1	800	12536.0236	0.0029	7.677	8.4899	9.1963	9.591	0
202	11	8	1	4	395.2618	29	1	800	12536.0236	0.0029	9.6227	10.4359	11.1423	11.5411	0
202	11	9	1	4	370.8178	56	1	800	12536.0236	0.0029	11.5688	12.3818	13.0883	13.4638	0
202	11	10	1	4	278.5907	56	1	800	12536.0236	0.0029	13.4884	14.3012	15.0077	15.2908	0
202	11	11	1	4	396.3674	56	0	800	12536.0236	0.0029	15.3146	16.1274	16.8338	17.234	0
202	11	12	1	4	241.9998	56	1	800	12536.0236	0.0029	0.0353	0.8484	1.5681	1.8137	0
202	11	1	2	4	449.1031	29	1	800	12536.0236	0.0029	0.0111	0.8241	1.5306	1.9843	1.8241
202	11	2	2	4	281.0569	56	1	800	12536.0236	0.0029	2.0104	2.8235	3.5299	3.8146	1.8241
202	11	3	2	4	297.7801	56	0	800	12536.0236	0.0029	3.8365	4.6495	5.356	5.6574	1.8241
202	11	4	2	4	277.8732	56	1	800	12536.0236	0.0029	0.0327	0.8455	1.5654	1.847	1.8241
202	11	5	2	4	544.4419	29	1	800	12536.0236	0.0029	1.8719	2.685	3.3914	3.9395	1.8241
202	11	6	2	4	269.5926	56	1	800	12536.0236	0.0029	3.9647	4.7776	5.4843	5.7574	1.8241
202	11	7	2	4	327.1273	29	1	800	12536.0236	0.0029	5.7774	6.5903	7.2968	7.6276	1.8241
202	11	8	2	4	260.2289	56	1	800	12536.0236	0.0029	7.657	8.4699	9.1764	9.4401	1.8241
202	11	9	2	4	298.6161	56	1	800	12536.0236	0.0029	9.4694	10.2825	10.989	11.2916	1.8241
202	11	10	2	4	322.6308	29	1	800	12536.0236	0.0029	11.3221	12.1352	12.8417	13.1681	1.8241
202	11	11	2	4	367.4806	56	1	800	12536.0236	0.0029	13.1881	14.0013	14.7077	15.079	1.8241
202	11	12	2	4	336.1687	56	1	800	12536.0236	0.0029	15.1076	15.9226	16.6405	16.9806	1.8241
202	11	1	3	4	411.2522	29	1	800	12536.0236	0.0029	0.0151	0.8279	1.5343	1.9499	16.992
202	11	2	3	4	290.283	56	1	800	12536.0236	0.0029	1.9742	2.7872	3.4936	3.7874	16.992
202	11	3	3	4	348.2364	56	1	800	12536.0236	0.0029	3.8136	4.6266	5.3344	5.6876	16.992
202	11	4	3	4	299.634	56	1	800	12536.0236	0.0029	5.7208	6.5326	7.2392	7.5425	16.992
202	11	5	3	4	510.0672	29	1	800	12536.0236	0.0029	7.5726	8.3854	9.0918	9.606	16.992
202	11	6	3	4	378.5043	56	0	800	12536.0236	0.0029	9.625	10.4381	11.1447	11.5268	16.992
202	11	7	3	4	565.314	56	1	800	12536.0236	0.0029	0.031	0.8441	1.5652	2.1346	16.992
202	11	8	3	4	525.9365	29	1	800	12536.0236	0.0029	2.1636	2.9767	3.6831	4.2128	16.992
202	11	9	3	4	489.6345	29	0	800	12536.0236	0.0029	4.2429	5.056	5.7625	6.2559	16.992
202	11	10	3	4	273.7745	56	1	800	12536.0236	0.0029	0.0272	0.8403	1.56	1.8375	16.992
202	11	11	3	4	255.3908	56	1	800	12536.0236	0.0029	1.8669	2.6798	3.3862	3.6457	16.992
202	11	12	3	4	644.447	29	1	800	12536.0236	0.0029	3.6661	4.4791	5.1856	5.8337	16.992
202	11	1	4	4	398.895	56	1	800	12536.0236	0.0029	0.0161	0.8289	1.5354	1.9379	5.8444
202	11	2	4	4	477.0552	56	0	800	12536.0236	0.0029	1.9618	2.775	3.4815	3.9635	5.8444
202	11	3	4	4	695.4088	56	1	800	12536.0236	0.0029	0.0308	0.8438	1.5636	2.2634	5.8444
202	11	4	4	4	299.9468	56	1	800	12536.0236	0.0029	2.2835	3.0965	3.8029	4.1071	5.8444
202	11	5	4	4	355.6382	56	1	800	12536.0236	0.0029	4.1361	4.9491	5.6556	6.0149	5.8444
202	11	6	4	4	382.2001	56	1	800	12536.0236	0.0029	6.0421	6.8552	7.5617	7.9475	5.8444
202	11	7	4	4	413.8793	56	1	800	12536.0236	0.0029	7.975	8.7879	9.4944	9.9121	5.8444
202	11	8	4	4	399.787	56	1	800	12536.0236	0.0029	9.9342	10.7489	11.467	11.8705	5.8444
202	11	9	4	4	589.8365	29	1	800	12536.0236	0.0029	11.8935	12.7066	13.4131	14.0067	5.8444
202	11	10	4	4	353.6925	56	1	800	12536.0236	0.0029	14.0262	14.8393	15.5457	15.9031	5.8444
202	11	11	4	4	323.7058	56	1	800	12536.0236	0.0029	15.9323	16.7453	17.4518	17.7789	5.8444
202	11	12	4	4	387.0753	29	1	800	12536.0236	0.0029	17.7985	18.6116	19.3178	19.7085	5.8444
202	11	1	5	4	358.021	56	1	800	12536.0236	0.0029	0.0199	0.8328	1.5393	1.9011	19.7192
202	11	2	5	4	267.0567	56	1	800	12536.0236	0.0029	1.9259	2.7389	3.4453	3.7158	19.7192
202	11	3	5	4	390.5308	56	1	800	12536.0236	0.0029	3.7386	4.5516	5.2583	5.6526	19.7192
202	11	4	5	4	369.5817	56	1	800	12536.0236	0.0029	5.6848	6.4977	7.2041	7.5773	19.7192
202	11	5	5	4	337.7938	56	1	800	12536.0236	0.0029	7.604	8.417	9.1235	9.4649	19.7192
202	11	6	5	4	344.8769	29	0	800	12536.0236	0.0029	9.4966	10.3098	11.0162	11.3645	19.7192
202	11	7	5	4	310.6788	56	0	800	12536.0236	0.0029	0.0334	0.8465	1.5665	1.8811	19.7192
202	11	8	5	4	639.8269	56	1	800	12536.0236	0.0029	0.0265	0.8396	1.5594	2.2029	19.7192
202	11	9	5	4	480.9509	56	1	800	12536.0236	0.0029	2.2259	3.0389	3.7453	4.2299	19.7192
202	11	10	5	4	647.1345	29	1	800	12536.0236	0.0029	4.2519	5.0649	5.7713	6.4224	19.7192
202	11	11	5	4	467.7563	56	1	800	12536.0236	0.0029	6.4512	7.2642	7.9709	8.4424	19.7192
202	11	12	5	4	503.3944	29	1	800	12536.0236	0.0029	8.4638	9.2769	9.9833	10.4904	19.7192
202	11	1	6	4	357.6586	56	1	800	12536.0236	0.0029	0.0157	0.8285	1.535	1.8964	10.5005
202	11	2	6	4	304.4914	56	1	800	12536.0236	0.0029	1.9218	2.7347	3.441	3.7492	10.5005
202	11	3	6	4	285.8989	56	1	800	12536.0236	0.0029	3.7743	4.5873	5.2938	5.5832	10.5005
202	11	4	6	4	308.8048	56	1	800	12536.0236	0.0029	5.6136	6.4267	7.1331	7.4454	10.5005
202	11	5	6	4	310.6716	56	1	800	12536.0236	0.0029	7.4665	8.2794	8.9859	9.3	10.5005
202	11	6	6	4	442.8512	29	1	800	12536.0236	0.0029	9.3193	10.1335	10.8386	11.2851	10.5005
202	11	7	6	4	334.6835	56	1	800	12536.0236	0.0029	11.3051	12.1182	12.8246	13.1635	10.5005
202	11	8	6	4	304.1368	56	1	800	12536.0236	0.0029	13.1846	13.9976	14.7041	15.0117	10.5005
202	11	9	6	4	382.5041	29	1	800	12536.0236	0.0029	15.0373	15.8503	16.5568	16.9439	10.5005
202	11	10	6	4	279.3766	56	1	800	12536.0236	0.0029	16.97	17.783	18.5049	18.7879	10.5005
202	11	11	6	4	484.238	29	1	800	12536.0236	0.0029	18.8095	19.6224	20.3288	20.8167	10.5005
202	11	12	6	4	351.7699	56	1	800	12536.0236	0.0029	20.8353	21.6484	22.3552	22.7111	10.5005
202	12	1	1	4	281.1258	56	1	800	12726.9751	0.003	0.0153	0.8283	1.5348	1.8205	0
202	12	2	1	4	290.1639	56	1	800	12726.9751	0.003	1.856	2.6678	3.3742	3.6688	0
202	12	3	1	4	595.8679	29	1	800	12726.9751	0.003	3.6941	4.5071	5.2135	5.8131	0
202	12	4	1	4	382.2059	29	1	800	12726.9751	0.003	5.8401	6.6531	7.3596	7.7462	0
202	12	5	1	4	276.6232	56	1	800	12726.9751	0.003	7.7749	8.5858	9.2923	9.5734	0
202	12	6	1	4	279.7395	56	1	800	12726.9751	0.003	9.5993	10.412	11.1183	11.4019	0
202	12	7	1	4	372.2379	29	1	800	12726.9751	0.003	11.4249	12.238	12.9444	13.3208	0
202	12	8	1	4	318.9909	56	1	800	12726.9751	0.003	13.3442	14.1573	14.8638	15.1864	0
202	12	9	1	4	336.7835	56	1	800	12726.9751	0.003	15.2104	16.0234	16.7298	17.0701	0
202	12	10	1	4	322.443	56	1	800	12726.9751	0.003	17.0898	17.9031	18.6092	18.9353	0
202	12	11	1	4	583.7318	56	0	800	12726.9751	0.003	18.9557	19.7688	20.4752	21.0631	0
202	12	12	1	4	613.9242	56	1	800	12726.9751	0.003	0.0238	0.8368	1.5566	2.1741	0
202	12	13	1	4	284.774	56	1	800	12726.9751	0.003	2.1964	3.0103	3.7159	4.0044	0
202	12	14	1	4	245.2576	56	1	800	12726.9751	0.003	4.036	4.8488	5.5553	5.8044	0
202	12	15	1	4	347.5208	29	1	800	12726.9751	0.003	5.8352	6.6482	7.3547	7.7059	0
202	12	16	1	4	402.9322	56	1	800	12726.9751	0.003	7.728	8.541	9.2474	9.6543	0
202	12	17	1	4	418.4931	29	1	800	12726.9751	0.003	9.674	10.487	11.2081	11.6307	0
202	12	18	1	4	427.3643	56	1	800	12726.9751	0.003	11.66	12.4731	13.1795	13.6106	0
202	12	19	1	4	601.4844	29	1	800	12726.9751	0.003	13.6327	14.4457	15.1522	15.7573	0
202	12	20	1	4	432.9469	29	1	800	12726.9751	0.003	15.7786	16.5917	17.2981	17.7348	0
202	12	21	1	4	482.9018	56	1	800	12726.9751	0.003	17.7646	18.5777	19.2843	19.7707	0
202	12	22	1	4	316.0175	56	1	800	12726.9751	0.003	19.7909	20.6038	21.3101	21.6306	0
202	12	23	1	4	336.9948	56	1	800	12726.9751	0.003	21.6567	22.4698	23.1762	23.5171	0
202	12	24	1	4	458.4881	29	0	800	12726.9751	0.003	23.5361	24.3492	25.0556	25.5177	0
202	12	25	1	4	699.709	1	0	800	12726.9751	0.003	0.0331	0.8463	1.5662	2.2692	0
202	12	26	1	4	284.8303	56	1	800	12726.9751	0.003	0.0344	0.8475	1.5672	1.8559	0
202	12	27	1	4	526.1377	29	1	800	12726.9751	0.003	1.8872	2.7002	3.4067	3.9363	0
202	12	28	1	4	449.4526	56	1	800	12726.9751	0.003	3.9665	4.7795	5.486	5.9407	0
202	12	29	1	4	485.8613	29	1	800	12726.9751	0.003	5.967	6.779	7.4854	7.9749	0
202	12	30	1	4	281.1551	56	1	800	12726.9751	0.003	8.0051	8.8182	9.5248	9.8097	0
202	13	1	1	5	557.045	29	1	800	12788.7285	0.0031	0.0177	0.8302	1.5366	2.0971	0
202	13	2	1	5	272.0186	56	1	800	12788.7285	0.0031	2.1233	2.9364	3.6426	3.9183	0
202	13	3	1	5	213.0375	56	1	800	12788.7285	0.0031	3.9491	4.7624	5.4691	5.6858	0
202	13	4	1	5	291.7619	56	1	800	12788.7285	0.0031	5.7087	6.5217	7.2281	7.5241	0
202	13	5	1	5	369.1779	29	1	800	12788.7285	0.0031	7.5481	8.3611	9.0675	9.4409	0
202	13	6	1	5	488.9402	29	1	800	12788.7285	0.0031	9.4675	10.2804	11.0015	11.4942	0
202	13	7	1	5	439.4468	56	1	800	12788.7285	0.0031	11.5201	12.3331	13.0396	13.4826	0
202	13	8	1	5	494.6578	29	1	800	12788.7285	0.0031	13.506	14.3192	15.0256	15.5241	0
202	13	9	1	5	298.9635	56	1	800	12788.7285	0.0031	15.5454	16.3584	17.0649	17.3673	0
202	13	10	1	5	676.6008	29	1	800	12788.7285	0.0031	17.3982	18.2112	18.9317	19.6119	0
202	13	11	1	5	351.6915	56	1	800	12788.7285	0.0031	19.6373	20.4505	21.1569	21.5126	0
202	13	12	1	5	351.6943	56	1	800	12788.7285	0.0031	21.5435	22.3566	23.063	23.4184	0
202	14	1	1	5	391.9747	56	1	800	12822.3445	0.003	0.0174	0.8305	1.5368	1.9325	0
202	14	2	1	5	475.7218	29	1	800	12822.3445	0.003	1.9633	2.7764	3.4829	3.9626	0
202	14	3	1	5	702.1104	1	0	800	12822.3445	0.003	3.9895	4.8024	5.5089	6.2155	0
202	14	4	1	5	548.3106	29	1	800	12822.3445	0.003	0.0311	0.8442	1.5639	2.1158	0
202	14	5	1	5	553.561	29	1	800	12822.3445	0.003	2.1372	2.9501	3.6566	4.2137	0
202	14	6	1	5	366.3788	56	1	800	12822.3445	0.003	4.2431	5.0565	5.7626	6.1328	0
202	14	7	1	5	364.9657	29	1	800	12822.3445	0.003	6.1624	6.9757	7.682	8.0509	0
202	14	8	1	5	416.3887	29	1	800	12822.3445	0.003	8.0818	8.8949	9.6014	10.0212	0
202	14	9	1	5	540.1298	29	1	800	12822.3445	0.003	10.0412	10.8542	11.5607	12.1043	0
202	14	10	1	5	522.2026	56	1	800	12822.3445	0.003	12.1338	12.947	13.6534	14.1796	0
202	14	11	1	5	363.9908	29	1	800	12822.3445	0.003	14.1999	15.0129	15.7194	16.0871	0
202	14	12	1	5	513.1456	29	1	800	12822.3445	0.003	16.1059	16.9189	17.6253	18.1422	0
202	14	13	1	5	357.6809	56	1	800	12822.3445	0.003	18.1719	18.9849	19.6914	20.0525	0
202	14	14	1	5	338.2387	56	1	800	12822.3445	0.003	20.078	20.8911	21.5974	21.9395	0
202	14	15	1	5	370.7199	29	1	800	12822.3445	0.003	21.9706	22.7837	23.4901	23.8651	0
202	14	16	1	5	425.7283	56	1	800	12822.3445	0.003	23.89	24.7031	25.4095	25.8391	0
202	14	17	1	5	374.1898	29	1	800	12822.3445	0.003	25.8628	26.6758	27.3822	27.7606	0
202	14	18	1	5	357.4643	29	1	800	12822.3445	0.003	27.7821	28.5968	29.3149	29.6768	0
202	14	19	1	5	411.9637	29	1	800	12822.3445	0.003	29.7015	30.5145	31.2211	31.6368	0
202	14	20	1	5	415.616	29	1	800	12822.3445	0.003	31.6608	32.4739	33.1804	33.5997	0
202	14	21	1	5	463.3681	29	1	800	12822.3445	0.003	33.6202	34.4333	35.1397	35.6067	0
202	14	22	1	5	508.2562	29	1	800	12822.3445	0.003	35.6333	36.4466	37.1524	37.6642	0
202	14	23	1	5	283.9141	56	1	800	12822.3445	0.003	37.6855	38.4986	39.205	39.4926	0
202	14	24	1	5	347.0324	29	1	800	12822.3445	0.003	39.5117	40.3246	41.0311	41.3816	0
202	14	25	1	5	431.8303	56	1	800	12822.3445	0.003	41.4177	42.2307	42.9371	43.3724	0
202	14	26	1	5	689.0776	29	1	800	12822.3445	0.003	43.4037	44.2182	44.9366	45.6299	0
202	14	27	1	5	455.9377	29	1	800	12822.3445	0.003	45.6563	46.4693	47.1758	47.6357	0
202	14	28	1	5	615.8427	29	1	800	12822.3445	0.003	47.6557	48.4687	49.1751	49.7944	0
202	14	29	1	5	390.1797	56	1	800	12822.3445	0.003	49.816	50.628	51.3344	51.7284	0
202	14	30	1	5	429.6866	56	1	800	12822.3445	0.003	51.7615	52.5741	53.2805	53.7138	0
202	15	1	1	5	686.4937	56	1	800	12898.9459	0.0029	0.0081	0.821	1.5275	2.2175	0
202	15	2	1	5	538.6956	29	1	800	12898.9459	0.0029	2.2476	3.0603	3.7668	4.3091	0
202	15	3	1	5	324.4811	56	1	800	12898.9459	0.0029	4.34	5.1539	5.8595	6.1877	0
202	15	4	1	5	324.6676	56	1	800	12898.9459	0.0029	6.2062	7.019	7.7255	8.0538	0
202	15	5	1	5	326.0063	56	1	800	12898.9459	0.0029	8.0853	8.8984	9.6049	9.935	0
202	15	6	1	5	283.4357	56	1	800	12898.9459	0.0029	9.9648	10.7778	11.4843	11.7711	0
202	15	7	1	5	382.1351	29	1	800	12898.9459	0.0029	11.7908	12.6039	13.3109	13.6978	0
202	15	8	1	5	261.8825	56	1	800	12898.9459	0.0029	13.7236	14.5366	15.2431	15.5087	0
202	15	9	1	5	258.5677	56	0	800	12898.9459	0.0029	15.5363	16.3493	17.0559	17.3183	0
202	15	10	1	5	308.5087	56	1	800	12898.9459	0.0029	0.0305	0.8435	1.5633	1.8756	0
202	15	11	1	5	381.2269	29	1	800	12898.9459	0.0029	1.8965	2.711	3.416	3.801	0
202	15	12	1	5	373.2539	29	1	800	12898.9459	0.0029	3.8293	4.6423	5.3489	5.726	0
202	15	1	2	5	453.5016	56	1	800	12898.9459	0.0029	0.0123	0.8251	1.5316	1.9892	5.7374
202	15	2	2	5	303.8581	56	1	800	12898.9459	0.0029	2.0113	2.8245	3.5445	3.8544	5.7374
202	15	3	2	5	412.7205	56	1	800	12898.9459	0.0029	3.891	4.7038	5.4105	5.8272	5.7374
202	15	4	2	5	430.0104	29	1	800	12898.9459	0.0029	5.8502	6.6632	7.3697	7.8034	5.7374
202	15	5	2	5	700.4466	1	0	800	12898.9459	0.0029	7.8229	8.6359	9.3424	10.0462	5.7374
202	15	6	2	5	632.3527	29	1	800	12898.9459	0.0029	0.0303	0.8443	1.5641	2.2001	5.7374
202	15	7	2	5	561.0103	56	1	800	12898.9459	0.0029	2.2297	3.0427	3.7491	4.314	5.7374
202	15	8	2	5	499.0158	29	1	800	12898.9459	0.0029	4.3356	5.1488	5.8551	6.3578	5.7374
202	15	9	2	5	539.0272	29	1	800	12898.9459	0.0029	6.3882	7.2013	7.9078	8.4503	5.7374
202	15	10	2	5	385.296	29	1	800	12898.9459	0.0029	8.481	9.2941	10.0005	10.39	5.7374
202	15	11	2	5	391.2424	29	1	800	12898.9459	0.0029	10.4135	11.2267	11.9331	12.3283	5.7374
202	15	12	2	5	377.4781	56	1	800	12898.9459	0.0029	12.3597	13.1727	13.8792	14.2604	5.7374
202	15	1	3	5	518.2725	29	1	800	12898.9459	0.0029	0.009	0.8234	1.5285	2.0503	14.2701
202	15	2	3	5	432.589	56	1	800	12898.9459	0.0029	2.075	2.8881	3.5945	4.0307	14.2701
202	15	3	3	5	390.3737	29	1	800	12898.9459	0.0029	4.061	4.8741	5.5805	5.9743	14.2701
202	15	4	3	5	338.7724	29	1	800	12898.9459	0.0029	5.9939	6.8068	7.5133	7.8555	14.2701
202	15	5	3	5	355.5077	29	1	800	12898.9459	0.0029	7.8865	8.6997	9.4061	9.7662	14.2701
202	15	6	3	5	363.6561	29	1	800	12898.9459	0.0029	9.7925	10.6056	11.312	11.6793	14.2701
202	15	7	3	5	416.2198	56	1	800	12898.9459	0.0029	11.6986	12.5116	13.2181	13.6379	14.2701
202	15	8	3	5	355.1113	29	1	800	12898.9459	0.0029	13.658	14.471	15.1777	15.5363	14.2701
202	15	9	3	5	484.6487	56	1	800	12898.9459	0.0029	15.565	16.3787	17.0835	17.5716	14.2701
202	15	10	3	5	326.7918	29	1	800	12898.9459	0.0029	17.6033	18.4163	19.1228	19.4534	14.2701
202	15	11	3	5	407.8368	56	1	800	12898.9459	0.0029	19.4827	20.2958	21.0022	21.4137	14.2701
202	15	12	3	5	344.8037	29	1	800	12898.9459	0.0029	21.442	22.2551	22.9617	23.3102	14.2701
202	16	1	1	6	385.7342	29	1	800	12985.3842	0.003	0.0089	0.822	1.5285	1.9183	0
202	16	2	1	6	421.7934	56	1	800	12985.3842	0.003	1.9417	2.7547	3.4611	3.8867	0
202	16	3	1	6	283.5554	56	1	800	12985.3842	0.003	3.9146	4.7275	5.4339	5.7212	0
202	16	4	1	6	416.1436	29	1	800	12985.3842	0.003	5.7405	6.5535	7.2599	7.6797	0
202	16	5	1	6	230.6161	56	1	800	12985.3842	0.003	7.6999	8.5128	9.2193	9.4536	0
202	16	6	1	6	395.5453	56	1	800	12985.3842	0.003	9.4724	10.2856	10.9921	11.3912	0
202	16	7	1	6	304.7202	56	1	800	12985.3842	0.003	11.4189	12.2319	12.9381	13.2468	0
202	16	8	1	6	338.6771	56	1	800	12985.3842	0.003	13.2714	14.0843	14.7908	15.133	0
202	16	9	1	6	331.6877	56	1	800	12985.3842	0.003	15.164	15.9771	16.6835	17.0195	0
202	16	10	1	6	367.5108	29	1	800	12985.3842	0.003	17.0435	17.8565	18.563	18.934	0
202	16	11	1	6	492.4806	29	1	800	12985.3842	0.003	18.9629	19.776	20.4823	20.9785	0
202	16	12	1	6	310.0791	56	1	800	12985.3842	0.003	21.0022	21.8152	22.5216	22.8353	0
202	16	13	1	6	262.4197	56	1	800	12985.3842	0.003	22.8548	23.6679	24.3744	24.6404	0
202	16	14	1	6	279.5724	56	1	800	12985.3842	0.003	24.6677	25.4807	26.1871	26.4703	0
202	16	15	1	6	272.9754	56	1	800	12985.3842	0.003	26.4937	27.3084	28.0267	28.3033	0
202	16	16	1	6	315.7484	56	1	800	12985.3842	0.003	28.3331	29.1461	29.8526	30.1726	0
202	16	17	1	6	367.8486	56	1	800	12985.3842	0.003	30.1991	31.0122	31.7187	32.0902	0
202	16	18	1	6	527.2256	29	1	800	12985.3842	0.003	32.1186	32.9316	33.6381	34.1688	0
202	16	19	1	6	303.9665	56	1	800	12985.3842	0.003	34.198	35.0114	35.7173	36.0271	0
202	16	20	1	6	353.3093	29	0	800	12985.3842	0.003	36.0505	36.8636	37.5703	37.9273	0
202	16	21	1	6	700.3509	1	0	800	12985.3842	0.003	0.0232	0.8364	1.5561	2.2597	0
202	16	22	1	6	340.9478	56	1	800	12985.3842	0.003	0.0352	0.8483	1.5706	1.9174	0
202	16	23	1	6	430.9405	29	1	800	12985.3842	0.003	1.943	2.7543	3.4607	3.8953	0
202	16	24	1	6	515.1856	29	1	800	12985.3842	0.003	3.9141	4.727	5.4335	5.9523	0
202	16	25	1	6	425.8406	29	1	800	12985.3842	0.003	5.98	6.793	7.4994	7.9287	0
202	16	26	1	6	697.0028	1	0	800	12985.3842	0.003	7.9527	8.7657	9.4723	10.1731	0
202	16	27	1	6	473.3943	29	1	800	12985.3842	0.003	0.0341	0.8472	1.5669	2.0439	0
202	16	28	1	6	409.345	29	1	800	12985.3842	0.003	2.0735	2.8865	3.5929	4.0057	0
202	16	29	1	6	422.3044	29	1	800	12985.3842	0.003	4.0329	4.8458	5.5523	5.9781	0
202	16	30	1	6	379.0035	56	1	800	12985.3842	0.003	6.0055	6.8199	7.525	7.9077	0
202	17	1	1	6	385.6189	56	1	800	13047.964	0.0029	0.0188	0.8306	1.5369	1.9264	0
202	17	2	1	6	496.3807	29	1	800	13047.964	0.0029	1.9502	2.7633	3.4697	3.9701	0
202	17	3	1	6	405.8669	56	1	800	13047.964	0.0029	3.9895	4.8025	5.509	5.9184	0
202	17	4	1	6	471.7241	56	1	800	13047.964	0.0029	5.9489	6.762	7.4684	7.944	0
202	17	5	1	6	455.9979	56	1	800	13047.964	0.0029	7.976	8.7879	9.4944	9.9541	0
202	17	6	1	6	413.1131	29	1	800	13047.964	0.0029	9.9743	10.7873	11.4938	11.9105	0
202	17	7	1	6	551.0642	29	1	800	13047.964	0.0029	11.9336	12.7466	13.4531	14.0077	0
202	17	8	1	6	513.7702	56	0	800	13047.964	0.0029	14.0267	14.8393	15.5461	16.0637	0
202	17	9	1	6	548.1906	56	1	800	13047.964	0.0029	0.0297	0.8426	1.5623	2.1142	0
202	17	10	1	6	432.7596	56	1	800	13047.964	0.0029	2.1356	2.9486	3.6549	4.0912	0
202	17	11	1	6	469.5843	29	1	800	13047.964	0.0029	4.1215	4.9345	5.641	6.1144	0
202	17	12	1	6	333.6643	56	1	800	13047.964	0.0029	6.1342	6.9472	7.6536	7.9908	0
202	17	1	2	6	400.5488	29	1	800	13047.964	0.0029	0.0116	0.8245	1.5309	1.935	8.0023
202	17	2	2	6	259.3777	56	1	800	13047.964	0.0029	1.9573	2.7704	3.4769	3.74	8.0023
202	17	3	2	6	359.9667	56	1	800	13047.964	0.0029	3.7701	4.5831	5.2896	5.6532	8.0023
202	17	4	2	6	354.8455	56	1	800	13047.964	0.0029	5.6764	6.4892	7.1957	7.5542	8.0023
202	17	5	2	6	336.2665	29	1	800	13047.964	0.0029	7.5826	8.3954	9.1017	9.4416	8.0023
202	17	6	2	6	403.4072	29	1	800	13047.964	0.0029	9.4615	10.2746	10.9811	11.3882	8.0023
202	17	7	2	6	355.4515	29	1	800	13047.964	0.0029	11.4077	12.2206	12.9271	13.2871	8.0023
202	17	8	2	6	335.3842	56	1	800	13047.964	0.0029	13.3139	14.1267	14.8331	15.1722	8.0023
202	17	9	2	6	308.8696	56	1	800	13047.964	0.0029	15.1932	16.0065	16.7126	17.0259	8.0023
202	17	10	2	6	355.3142	29	1	800	13047.964	0.0029	17.0457	17.8588	18.5653	18.9243	8.0023
202	17	11	2	6	386.4315	56	1	800	13047.964	0.0029	18.9517	19.7649	20.4713	20.8612	8.0023
202	17	12	2	6	342.2159	56	1	800	13047.964	0.0029	20.8846	21.6976	22.404	22.7508	8.0023
202	18	1	1	6	686.0159	29	1	800	13130.3909	0.0032	0.0184	0.8312	1.5377	2.2276	0
202	18	2	1	6	273.4912	56	1	800	13130.3909	0.0032	2.2575	3.0705	3.777	4.0545	0
202	18	3	1	6	308.6341	56	1	800	13130.3909	0.0032	4.0836	4.8966	5.6031	5.9156	0
202	18	4	1	6	357.868	56	1	800	13130.3909	0.0032	5.9364	6.7493	7.4698	7.833	0
202	18	5	1	6	356.2965	56	1	800	13130.3909	0.0032	7.8692	8.6821	9.3885	9.7489	0
202	18	6	1	6	424.7572	29	1	800	13130.3909	0.0032	9.7751	10.5881	11.2946	11.7236	0
202	18	7	1	6	575.4245	29	1	800	13130.3909	0.0032	11.7478	12.5608	13.2673	13.8464	0
202	18	8	1	6	697.7782	1	0	800	13130.3909	0.0032	13.867	14.6801	15.4015	16.1027	0
202	18	9	1	6	339.8313	56	1	800	13130.3909	0.0032	0.0283	0.8413	1.5611	1.9047	0
202	18	10	1	6	359.839	29	1	800	13130.3909	0.0032	1.9342	2.7473	3.454	3.8173	0
202	18	11	1	6	373.2505	56	1	800	13130.3909	0.0032	3.8403	4.6533	5.3598	5.7366	0
202	18	12	1	6	415.4582	29	1	800	13130.3909	0.0032	5.76	6.5729	7.2792	7.6982	0
202	18	13	1	6	407.0831	56	1	800	13130.3909	0.0032	7.7191	8.5321	9.2387	9.6496	0
202	18	14	1	6	452.7559	29	1	800	13130.3909	0.0032	9.6784	10.4915	11.1979	11.6542	0
202	18	15	1	6	313.647	56	1	800	13130.3909	0.0032	11.6779	12.4908	13.1972	13.5148	0
202	18	16	1	6	590.2901	56	0	800	13130.3909	0.0032	13.5439	14.3577	15.0633	15.6575	0
202	18	17	1	6	484.0512	29	1	800	13130.3909	0.0032	0.0296	0.8427	1.5624	2.0499	0
202	18	18	1	6	323.3294	29	1	800	13130.3909	0.0032	2.0823	2.8953	3.6018	3.9286	0
202	18	19	1	6	397.3219	56	0	800	13130.3909	0.0032	3.9489	4.7626	5.468	5.8692	0
202	18	20	1	6	283.0313	56	1	800	13130.3909	0.0032	0.0293	0.8424	1.562	1.8485	0
202	18	21	1	6	312.8247	56	1	800	13130.3909	0.0032	1.8688	2.6817	3.3882	3.7046	0
202	18	22	1	6	319.5028	56	1	800	13130.3909	0.0032	3.735	4.548	5.2542	5.5776	0
202	18	23	1	6	411.5548	56	1	800	13130.3909	0.0032	5.6011	6.4138	7.1203	7.5356	0
202	18	24	1	6	408.554	29	1	800	13130.3909	0.0032	7.5601	8.3732	9.0796	9.4925	0
202	18	25	1	6	624.4072	29	1	800	13130.3909	0.0032	9.5196	10.3326	11.039	11.6684	0
202	18	26	1	6	292.1676	56	1	800	13130.3909	0.0032	11.6933	12.5053	13.2116	13.5082	0
202	18	27	1	6	313.8834	56	1	800	13130.3909	0.0032	13.5316	14.3446	15.051	15.3685	0
202	18	28	1	6	592.0523	56	1	800	13130.3909	0.0032	15.3978	16.2107	16.9171	17.5126	0
202	18	29	1	6	606.6693	29	1	800	13130.3909	0.0032	17.5439	18.3566	19.0634	19.6744	0
202	18	30	1	6	361.3758	29	1	800	13130.3909	0.0032	19.7046	20.516	21.2224	21.5874	0
202	19	1	1	7	700.992	1	0	800	13223.8666	0.0029	0.0204	0.8334	1.5397	2.2441	0
202	19	2	1	7	442.0517	29	1	800	13223.8666	0.0029	0.0353	0.8482	1.5692	2.0162	0
202	19	3	1	7	395.6892	29	1	800	13223.8666	0.0029	2.0495	2.861	3.5674	3.9676	0
202	19	4	1	7	365.962	29	1	800	13223.8666	0.0029	3.994	4.807	5.5134	5.8836	0
202	19	5	1	7	341.9861	56	1	800	13223.8666	0.0029	5.9134	6.7263	7.4328	7.7785	0
202	19	6	1	7	356.5944	56	1	800	13223.8666	0.0029	7.8061	8.6192	9.3257	9.6894	0
202	19	7	1	7	378.9745	56	1	800	13223.8666	0.0029	9.7257	10.5384	11.2449	11.6274	0
202	19	8	1	7	510.2577	29	1	800	13223.8666	0.0029	11.658	12.4711	13.1776	13.6915	0
202	19	9	1	7	328.6755	56	1	800	13223.8666	0.0029	13.7108	14.5238	15.2302	15.5625	0
202	19	10	1	7	309.1912	56	1	800	13223.8666	0.0029	15.5902	16.4032	17.1111	17.424	0
202	19	11	1	7	356.7715	29	1	800	13223.8666	0.0029	17.4431	18.2559	18.9625	19.3233	0
202	19	12	1	7	278.0212	56	1	800	13223.8666	0.0029	19.3489	20.162	20.8684	21.1507	0
202	19	1	2	7	372.2622	56	1	800	13223.8666	0.0029	0.0141	0.8271	1.5345	1.9105	21.1612
202	19	2	2	7	367.7486	29	0	800	13223.8666	0.0029	1.9336	2.7465	3.4531	3.8246	21.1612
202	19	3	2	7	435.1126	29	1	800	13223.8666	0.0029	0.0275	0.8406	1.5603	1.999	21.1612
202	19	4	2	7	239.7922	56	1	800	13223.8666	0.0029	2.028	2.84	3.5464	3.7899	21.1612
202	19	5	2	7	314.6635	56	1	800	13223.8666	0.0029	3.813	4.6271	5.3325	5.6508	21.1612
202	19	6	2	7	326.9664	56	0	800	13223.8666	0.0029	5.679	6.4921	7.1985	7.5292	21.1612
202	19	7	2	7	362.1222	56	1	800	13223.8666	0.0029	0.0247	0.8378	1.5576	1.9231	21.1612
202	19	8	2	7	365.9137	29	1	800	13223.8666	0.0029	1.9443	2.7572	3.4637	3.8346	21.1612
202	19	9	2	7	416.3129	29	1	800	13223.8666	0.0029	3.8649	4.6767	5.383	5.8032	21.1612
202	19	10	2	7	297.0651	56	1	800	13223.8666	0.0029	5.8229	6.6359	7.3425	7.643	21.1612
202	19	11	2	7	464.7359	29	1	800	13223.8666	0.0029	7.6625	8.4754	9.1818	9.65	21.1612
202	19	12	2	7	334.9052	56	0	800	13223.8666	0.0029	9.675	10.488	11.1956	11.5343	21.1612
202	19	1	3	7	385.9513	56	1	800	13223.8666	0.0029	0.0093	0.8225	1.529	1.9184	0.0125
202	19	2	3	7	342.6607	29	1	800	13223.8666	0.0029	1.9423	2.7553	3.4617	3.8078	0.0125
202	19	3	3	7	273.5056	56	1	800	13223.8666	0.0029	3.8349	4.6481	5.3544	5.6318	0.0125
202	19	4	3	7	308.1291	29	1	800	13223.8666	0.0029	5.6611	6.474	7.1804	7.4921	0.0125
202	19	5	3	7	366.8712	29	1	800	13223.8666	0.0029	7.5138	8.3268	9.0332	9.4038	0.0125
202	19	6	3	7	430.1436	56	1	800	13223.8666	0.0029	9.4334	10.2461	10.9526	11.3864	0.0125
202	19	7	3	7	331.5543	29	1	800	13223.8666	0.0029	11.4061	12.219	12.9253	13.2604	0.0125
202	19	8	3	7	402.7094	56	0	800	13223.8666	0.0029	13.2852	14.0982	14.8047	15.211	0.0125
202	19	9	3	7	615.0489	29	1	800	13223.8666	0.0029	0.0347	0.8478	1.5675	2.1862	0.0125
202	19	10	3	7	398.5818	56	1	800	13223.8666	0.0029	2.2073	3.0204	3.7418	4.144	0.0125
202	19	11	3	7	339.4454	29	1	800	13223.8666	0.0029	4.1668	4.9798	5.6862	6.0295	0.0125
202	19	12	3	7	267.5725	56	1	800	13223.8666	0.0029	6.0594	6.8725	7.5789	7.8501	0.0125
202	19	1	4	7	417.2341	29	1	800	13223.8666	0.0029	0.0089	0.8218	1.543	1.9644	7.8608
202	19	2	4	7	373.2874	29	1	800	13223.8666	0.0029	1.9949	2.8078	3.5143	3.8914	7.8608
202	19	3	4	7	367.2919	29	1	800	13223.8666	0.0029	3.9142	4.7273	5.4337	5.8046	7.8608
202	19	4	4	7	302.1496	56	1	800	13223.8666	0.0029	5.8336	6.6466	7.353	7.6588	7.8608
202	19	5	4	7	372.4208	29	1	800	13223.8666	0.0029	7.6863	8.4993	9.2207	9.597	7.8608
202	19	6	4	7	342.306	56	1	800	13223.8666	0.0029	9.6191	10.432	11.1385	11.4851	7.8608
202	19	7	4	7	323.1677	56	1	800	13223.8666	0.0029	11.5117	12.3247	13.0312	13.3582	7.8608
202	19	8	4	7	316.3526	56	1	800	13223.8666	0.0029	13.3778	14.1908	14.8973	15.2172	7.8608
202	19	9	4	7	339.8045	29	1	800	13223.8666	0.0029	15.2439	16.0569	16.7639	17.1074	7.8608
202	19	10	4	7	339.5309	56	1	800	13223.8666	0.0029	17.1367	18.043	18.7494	19.0925	7.8608
202	19	11	4	7	327.983	56	1	800	13223.8666	0.0029	19.1228	19.9356	20.642	20.9736	7.8608
202	19	12	4	7	448.7582	56	1	800	13223.8666	0.0029	21.0019	21.8151	22.5215	22.9749	7.8608
202	20	1	1	7	443.1828	56	1	800	13340.3494	0.0034	0.016	0.829	1.5354	1.9823	0
202	20	2	1	7	554.2274	29	1	800	13340.3494	0.0034	2.002	2.815	3.5215	4.0793	0
202	20	3	1	7	293.7921	56	1	800	13340.3494	0.0034	4.1083	4.921	5.6274	5.9248	0
202	20	4	1	7	291.0007	56	1	800	13340.3494	0.0034	5.9474	6.7621	7.4802	7.7758	0
202	20	5	1	7	294.7429	56	1	800	13340.3494	0.0034	7.8001	8.6131	9.3196	9.6179	0
202	20	6	1	7	290.6165	56	1	800	13340.3494	0.0034	9.6395	10.4525	11.1592	11.4533	0
202	20	7	1	7	362.2681	29	1	800	13340.3494	0.0034	11.4791	12.2919	12.9984	13.3645	0
202	20	8	1	7	332.0404	56	0	800	13340.3494	0.0034	13.3849	14.1985	14.9044	15.2413	0
202	20	9	1	7	399.3224	29	1	800	13340.3494	0.0034	0.0317	0.8447	1.5645	1.9672	0
202	20	10	1	7	383.3102	29	1	800	13340.3494	0.0034	1.9912	2.8041	3.5106	3.8978	0
202	20	11	1	7	322.622	56	1	800	13340.3494	0.0034	3.9238	4.7368	5.444	5.7704	0
202	20	12	1	7	479.0185	29	1	800	13340.3494	0.0034	5.8034	6.6162	7.3226	7.8057	0
202	20	13	1	7	455.2722	29	1	800	13340.3494	0.0034	7.8292	8.6422	9.3487	9.8075	0
202	20	14	1	7	388.3819	56	1	800	13340.3494	0.0034	9.8285	10.6415	11.348	11.7403	0
202	20	15	1	7	324.1747	29	1	800	13340.3494	0.0034	11.7613	12.5744	13.2956	13.6237	0
202	20	16	1	7	291.4284	56	1	800	13340.3494	0.0034	13.654	14.4669	15.1734	15.4685	0
202	20	17	1	7	441.5379	56	1	800	13340.3494	0.0034	15.4934	16.3063	17.0129	17.4583	0
202	20	18	1	7	485.2376	29	0	800	13340.3494	0.0034	17.4794	18.2924	18.9988	19.4876	0
202	20	19	1	7	480.398	56	1	800	13340.3494	0.0034	0.0346	0.8474	1.5671	2.0512	0
202	20	20	1	7	448.8669	29	1	800	13340.3494	0.0034	2.0736	2.8867	3.5931	4.0463	0
202	20	21	1	7	388.1549	29	1	800	13340.3494	0.0034	4.073	4.886	5.5925	5.9842	0
202	20	22	1	7	314.3593	56	1	800	13340.3494	0.0034	6.0055	6.8188	7.5254	7.8436	0
202	20	23	1	7	384.706	29	1	800	13340.3494	0.0034	7.872	8.6849	9.3912	9.7797	0
202	20	24	1	7	338.5778	56	1	800	13340.3494	0.0034	9.8045	10.6175	11.3239	11.666	0
202	20	25	1	7	360.4209	56	1	800	13340.3494	0.0034	11.6972	12.5102	13.2167	13.5807	0
202	20	26	1	7	458.6702	29	1	800	13340.3494	0.0034	13.6032	14.4163	15.137	15.5999	0
202	20	27	1	7	413.8473	56	1	800	13340.3494	0.0034	15.6294	16.4423	17.1487	17.5664	0
202	20	28	1	7	434.5635	56	1	800	13340.3494	0.0034	17.5888	18.4016	19.1081	19.5461	0
202	20	29	1	7	406.6465	29	1	800	13340.3494	0.0034	19.5746	20.3876	21.0941	21.5046	0
202	20	30	1	7	409.533	56	1	800	13340.3494	0.0034	21.534	22.3476	23.0535	23.4667	0
202	21	1	1	7	320.3293	56	1	800	13401.6756	0.0033	0.0153	0.8281	1.5346	1.8587	0
202	21	2	1	7	680.9049	29	1	800	13401.6756	0.0033	1.8813	2.6942	3.4006	4.0851	0
202	21	3	1	7	541.1522	29	0	800	13401.6756	0.0033	4.1071	4.9201	5.6266	6.1713	0
202	21	4	1	7	700.1988	1	0	800	13401.6756	0.0033	0.0348	0.8478	1.5676	2.2711	0
202	21	5	1	7	261.3788	56	1	800	13401.6756	0.0033	0.0309	0.8439	1.5636	1.8285	0
202	21	6	1	7	353.341	56	1	800	13401.6756	0.0033	1.857	2.67	3.3909	3.7505	0
202	21	7	1	7	318.3741	56	1	800	13401.6756	0.0033	3.7773	4.5894	5.2958	5.6181	0
202	21	8	1	7	485.3189	56	1	800	13401.6756	0.0033	5.6424	6.4554	7.1619	7.6508	0
202	21	9	1	7	375.5743	56	1	800	13401.6756	0.0033	7.6818	8.4948	9.2012	9.5802	0
202	21	10	1	7	622.6183	29	1	800	13401.6756	0.0033	9.6009	10.4144	11.1207	11.747	0
202	21	11	1	7	268.7805	56	0	800	13401.6756	0.0033	11.7738	12.5868	13.2932	13.5656	0
202	21	12	1	7	701.0136	1	0	800	13401.6756	0.0033	0.0267	0.8399	1.5595	2.2638	0
202	21	1	2	7	499.1944	56	1	800	13401.6756	0.0033	0.0184	0.8314	1.5379	2.0407	0.0102
202	21	2	2	7	353.8879	29	1	800	13401.6756	0.0033	2.0711	2.8842	3.5906	3.948	0.0102
202	21	3	2	7	324.584	56	1	800	13401.6756	0.0033	3.9774	4.7902	5.4966	5.8248	0.0102
202	21	4	2	7	475.2334	56	1	800	13401.6756	0.0033	5.843	6.6562	7.3626	7.8416	0.0102
202	21	5	2	7	303.0241	56	1	800	13401.6756	0.0033	7.8692	8.6822	9.3886	9.6957	0.0102
202	21	6	2	7	326.3219	56	1	800	13401.6756	0.0033	9.7219	10.5349	11.2414	11.5717	0.0102
202	21	7	2	7	331.683	56	1	800	13401.6756	0.0033	11.6016	12.4146	13.1208	13.4563	0.0102
202	21	8	2	7	380.8647	29	1	800	13401.6756	0.0033	13.4807	14.2937	15.0002	15.3848	0.0102
202	21	9	2	7	400.6086	29	1	800	13401.6756	0.0033	15.4134	16.2264	16.9328	17.3369	0.0102
202	21	10	2	7	398.6634	29	1	800	13401.6756	0.0033	17.3595	18.1725	18.8789	19.2826	0.0102
202	21	11	2	7	390.2985	29	1	800	13401.6756	0.0033	19.3068	20.1186	20.8249	21.2189	0.0102
202	21	12	2	7	507.0185	29	1	800	13401.6756	0.0033	21.2381	22.0512	22.7576	23.2684	0.0102
202	22	1	1	8	421.145	29	1	800	13463.8688	0.0031	0.019	0.8316	1.5381	1.9629	0
202	22	2	1	8	361.8096	29	1	800	13463.8688	0.0031	1.9913	2.8043	3.5108	3.8762	0
202	22	3	1	8	326.331	29	1	800	13463.8688	0.0031	3.8972	4.7104	5.4168	5.7466	0
202	22	4	1	8	335.7184	29	0	800	13463.8688	0.0031	5.7767	6.5897	7.2965	7.6359	0
202	22	5	1	8	458.1846	56	1	800	13463.8688	0.0031	0.0278	0.8407	1.5604	2.0223	0
202	22	6	1	8	324.6761	56	1	800	13463.8688	0.0031	2.0402	2.8534	3.5599	3.888	0
202	22	7	1	8	392.1328	29	1	800	13463.8688	0.0031	3.9063	4.7195	5.4259	5.8215	0
202	22	8	1	8	309.2062	56	1	800	13463.8688	0.0031	5.8527	6.6656	7.3719	7.685	0
202	22	9	1	8	394.3305	56	1	800	13463.8688	0.0031	7.7051	8.5183	9.2247	9.6228	0
202	22	10	1	8	359.2568	29	1	800	13463.8688	0.0031	9.6512	10.4643	11.1706	11.5343	0
202	22	11	1	8	301.2132	56	1	800	13463.8688	0.0031	11.5577	12.3703	13.0768	13.3817	0
202	22	12	1	8	297.9816	56	1	800	13463.8688	0.0031	13.4104	14.2232	14.9295	15.2312	0
202	22	13	1	8	548.4011	29	1	800	13463.8688	0.0031	15.2627	16.0758	16.7822	17.3341	0
202	22	14	1	8	280.795	56	1	800	13463.8688	0.0031	17.3554	18.1684	18.8749	19.1593	0
202	22	15	1	8	468.9018	56	1	800	13463.8688	0.0031	19.1815	19.9945	20.7009	21.1735	0
202	22	16	1	8	359.8473	56	1	800	13463.8688	0.0031	21.1943	22.0071	22.7136	23.0772	0
202	22	17	1	8	290.01	56	1	800	13463.8688	0.0031	23.1005	23.9132	24.6197	24.9134	0
202	22	18	1	8	285.2336	56	1	800	13463.8688	0.0031	24.9396	25.7526	26.459	26.7478	0
202	22	19	1	8	343.6228	56	1	800	13463.8688	0.0031	26.7656	27.5787	28.2997	28.6492	0
202	22	20	1	8	390.9301	29	1	800	13463.8688	0.0031	28.6733	29.4847	30.1912	30.5857	0
202	22	21	1	8	421.2211	29	1	800	13463.8688	0.0031	30.6045	31.4174	32.1239	32.5488	0
202	22	22	1	8	404.1513	56	1	800	13463.8688	0.0031	32.5771	33.3901	34.0966	34.5042	0
202	22	23	1	8	410.5524	29	1	800	13463.8688	0.0031	34.5369	35.3508	36.056	36.4707	0
202	22	24	1	8	418.4313	56	1	800	13463.8688	0.0031	36.4959	37.3089	38.0153	38.4375	0
202	22	25	1	8	510.1498	29	1	800	13463.8688	0.0031	38.4684	39.2816	39.9879	40.5016	0
202	22	26	1	8	336.301	56	1	800	13463.8688	0.0031	40.521	41.3342	42.0407	42.3805	0
202	22	27	1	8	403.7079	29	1	800	13463.8688	0.0031	42.4006	43.2137	43.9201	44.3277	0
202	22	28	1	8	458.6438	56	1	800	13463.8688	0.0031	44.3599	45.1729	45.8795	46.3418	0
202	22	29	1	8	373.0577	29	1	800	13463.8688	0.0031	46.3726	47.1856	47.8921	48.2688	0
202	22	30	1	8	413.7839	56	1	800	13463.8688	0.0031	48.2918	49.105	49.8115	50.229	0
202	23	1	1	8	407.7477	29	1	800	13528.7009	0.0032	0.0175	0.8295	1.5357	1.9471	0
202	23	2	1	8	396.2539	56	1	800	13528.7009	0.0032	1.9756	2.7887	3.4951	3.8956	0
202	23	3	1	8	502.3508	56	1	800	13528.7009	0.0032	3.9217	4.7347	5.4412	5.947	0
202	23	4	1	8	394.0166	29	1	800	13528.7009	0.0032	5.9743	6.7886	7.4938	7.8915	0
202	23	5	1	8	388.5076	29	1	800	13528.7009	0.0032	7.9203	8.7333	9.4399	9.8321	0
202	23	6	1	8	280.4652	56	1	800	13528.7009	0.0032	9.8532	10.6661	11.3728	11.6568	0
202	23	7	1	8	366.3153	29	1	800	13528.7009	0.0032	11.6797	12.4922	13.1986	13.5697	0
202	23	8	1	8	701.8724	1	0	800	13528.7009	0.0032	13.5985	14.4119	15.118	15.8232	0
202	23	9	1	8	700.3306	1	0	800	13528.7009	0.0032	0.0276	0.8406	1.5604	2.2641	0
202	23	10	1	8	498.6697	29	1	800	13528.7009	0.0032	0.0291	0.8421	1.562	2.0648	0
202	23	11	1	8	237.7239	56	1	800	13528.7009	0.0032	2.0951	2.9081	3.6286	3.8706	0
202	23	12	1	8	291.3474	29	1	800	13528.7009	0.0032	3.8946	4.7075	5.414	5.7101	0
202	23	1	2	8	383.2389	56	1	800	13528.7009	0.0032	0.0112	0.8243	1.5307	1.9179	5.7199
202	23	2	2	8	320.2964	29	1	800	13528.7009	0.0032	1.944	2.757	3.4643	3.7884	5.7199
202	23	3	2	8	332.4394	56	1	800	13528.7009	0.0032	3.8102	4.623	5.3297	5.6657	5.7199
202	23	4	2	8	388.9681	29	1	800	13528.7009	0.0032	5.6894	6.5024	7.2089	7.6014	5.7199
202	23	5	2	8	615.2598	29	1	800	13528.7009	0.0032	7.6222	8.4352	9.1416	9.7605	5.7199
202	23	6	2	8	367.5453	56	1	800	13528.7009	0.0032	9.7819	10.5952	11.3009	11.6721	5.7199
202	23	7	2	8	344.0784	29	1	800	13528.7009	0.0032	11.7007	12.5138	13.2202	13.5691	5.7199
202	23	8	2	8	332.7189	29	1	800	13528.7009	0.0032	13.5935	14.4065	15.113	15.4491	5.7199
202	23	9	2	8	389.4534	56	1	800	13528.7009	0.0032	15.4729	16.2859	16.9924	17.3856	5.7199
202	23	10	2	8	318.8501	56	1	800	13528.7009	0.0032	17.4063	18.2203	18.9384	19.2612	5.7199
202	23	11	2	8	387.844	29	1	800	13528.7009	0.0032	19.2852	20.098	20.8045	21.1963	5.7199
202	23	12	2	8	315.4126	29	1	800	13528.7009	0.0032	21.2178	22.0307	22.7373	23.0562	5.7199
202	24	1	1	8	477.6955	29	1	800	13582.6709	0.003	0.0125	0.8253	1.5316	2.014	0
202	24	2	1	8	295.7264	29	1	800	13582.6709	0.003	2.0384	2.8512	3.5577	3.8572	0
202	24	3	1	8	287.6162	56	1	800	13582.6709	0.003	3.8776	4.6906	5.3971	5.6884	0
202	24	4	1	8	323.3266	56	1	800	13582.6709	0.003	5.717	6.53	7.2365	7.564	0
202	24	5	1	8	369.0438	29	1	800	13582.6709	0.003	7.5965	8.4094	9.1158	9.4886	0
202	24	6	1	8	350.1245	29	1	800	13582.6709	0.003	9.5157	10.3288	11.0352	11.3891	0
202	24	7	1	8	347.7637	29	1	800	13582.6709	0.003	11.4084	12.2215	12.9279	13.2792	0
202	24	8	1	8	322.3894	29	1	800	13582.6709	0.003	13.3011	14.1142	14.8214	15.1473	0
202	24	9	1	8	333.6432	56	1	800	13582.6709	0.003	15.1672	15.9803	16.6867	17.0243	0
202	24	10	1	8	407.862	56	1	800	13582.6709	0.003	17.0466	17.8598	18.5661	18.9775	0
202	24	11	1	8	368.0871	29	1	800	13582.6709	0.003	19.0193	19.8323	20.5387	20.9103	0
202	24	12	1	8	533.1045	29	1	800	13582.6709	0.003	20.9388	21.7519	22.4585	22.9953	0
202	24	13	1	8	328.8649	56	1	800	13582.6709	0.003	23.0181	23.831	24.5375	24.8703	0
202	24	14	1	8	410.6159	29	1	800	13582.6709	0.003	24.8975	25.7104	26.4168	26.8309	0
202	24	15	1	8	485.4505	29	1	800	13582.6709	0.003	26.8567	27.6698	28.3763	28.8653	0
202	24	16	1	8	390.8224	56	1	800	13582.6709	0.003	28.8965	29.7092	30.4156	30.8102	0
202	24	17	1	8	557.811	29	1	800	13582.6709	0.003	30.8422	31.6552	32.3616	32.9231	0
202	24	18	1	8	616.6383	56	1	800	13582.6709	0.003	32.9482	33.7612	34.4676	35.0877	0
202	24	19	1	8	343.1711	56	1	800	13582.6709	0.003	35.1073	35.9205	36.6416	36.9905	0
202	24	20	1	8	321.4182	56	1	800	13582.6709	0.003	37.0285	37.8398	38.5463	38.8716	0
202	24	21	1	8	365.8753	29	0	800	13582.6709	0.003	38.8928	39.7061	40.4124	40.782	0
202	24	22	1	8	478.9873	56	1	800	13582.6709	0.003	0.0327	0.8457	1.5654	2.0479	0
202	24	23	1	8	435.5058	29	1	800	13582.6709	0.003	2.0723	2.8851	3.5915	4.0307	0
202	24	24	1	8	315.9923	56	1	800	13582.6709	0.003	4.058	4.871	5.5775	5.8978	0
202	24	25	1	8	426.3813	29	1	800	13582.6709	0.003	5.9241	6.7371	7.4436	7.8734	0
202	24	26	1	8	463.6189	29	1	800	13582.6709	0.003	7.8974	8.7097	9.4162	9.8843	0
202	24	27	1	8	414.9146	29	1	800	13582.6709	0.003	9.9095	10.7225	11.4289	11.8477	0
202	24	28	1	8	375.5265	29	1	800	13582.6709	0.003	11.8688	12.6818	13.3885	13.7676	0
202	24	29	1	8	553.8019	29	1	800	13582.6709	0.003	13.7881	14.6013	15.3077	15.865	0
202	24	30	1	8	457.9339	29	1	800	13582.6709	0.003	15.8942	16.7083	17.4137	17.8754	0
202	25	1	1	9	491.9562	56	0	800	13671.6414	0.003	0.0167	0.8298	1.5362	2.0317	0
202	25	2	1	9	312.7695	29	1	800	13671.6414	0.003	0.039	0.8513	1.5709	1.8873	0
202	25	3	1	9	396.8056	29	1	800	13671.6414	0.003	1.9176	2.7305	3.437	3.8373	0
202	25	4	1	9	360.4441	56	1	800	13671.6414	0.003	3.8636	4.6767	5.3832	5.7475	0
202	25	5	1	9	319.3006	29	1	800	13671.6414	0.003	5.7695	6.5829	7.3038	7.6274	0
202	25	6	1	9	473.1505	56	1	800	13671.6414	0.003	7.6491	8.462	9.1685	9.6457	0
202	25	7	1	9	378.7387	29	1	800	13671.6414	0.003	9.675	10.4881	11.1945	11.5767	0
202	25	8	1	9	316.5967	56	1	800	13671.6414	0.003	11.6077	12.4207	13.1272	13.4472	0
202	25	9	1	9	410.9857	29	1	800	13671.6414	0.003	13.4738	14.287	14.9933	15.4083	0
202	25	10	1	9	306.6705	56	1	800	13671.6414	0.003	15.4331	16.2462	16.9527	17.2633	0
202	25	11	1	9	349.6624	56	1	800	13671.6414	0.003	17.2861	18.0989	18.8054	19.1587	0
202	25	12	1	9	350.2576	29	1	800	13671.6414	0.003	19.1785	19.9916	20.698	21.0519	0
202	25	1	2	9	374.1279	29	1	800	13671.6414	0.003	0.0096	0.8222	1.5286	1.9063	21.0628
202	25	2	2	9	352.922	56	1	800	13671.6414	0.003	1.9284	2.742	3.448	3.8045	21.0628
202	25	3	2	9	234.9853	56	1	800	13671.6414	0.003	3.8348	4.6478	5.3542	5.5931	21.0628
202	25	4	2	9	388.4032	29	1	800	13671.6414	0.003	5.6207	6.4339	7.1402	7.5324	21.0628
202	25	5	2	9	316.7255	56	1	800	13671.6414	0.003	7.5534	8.3664	9.0729	9.3933	21.0628
202	25	6	2	9	308.2223	29	1	800	13671.6414	0.003	9.4194	10.2325	10.9392	11.251	21.0628
202	25	7	2	9	371.4577	29	1	800	13671.6414	0.003	11.2724	12.0853	12.7917	13.1669	21.0628
202	25	8	2	9	272.4138	56	1	800	13671.6414	0.003	13.1916	14.0046	14.7111	14.9872	21.0628
