SUBID	BLOCK	TRIAL	REP	RUNID	RT	RESP	ACC	RSIJIT	EV_START	EV_BLOCK	EV_TRIAL	EV_RETRIEVAL	EV_PROBE	EV_RESP	EV_BLEND
103	1	1	1	1	699.6827	1	0	800	360678.8785	 0.0044	 0.0223	 0.8392	 1.5560	 2.2611	0
103	1	2	1	1	20.9869	56	0	800	360678.8785	 0.0044	 0.0259	 0.8596	 1.5764	 1.6025	0
103	1	3	1	1	699.7071	1	0	800	360678.8785	 0.0044	 0.0286	 0.8456	 1.5625	 2.2646	0
103	1	4	1	1	654.9143	56	1	800	360678.8785	 0.0044	 0.0260	 0.8428	 1.5596	 2.2162	0
103	1	5	1	1	699.7280	1	0	800	360678.8785	 0.0044	 2.2308	 3.0433	 3.7600	 4.4614	0
103	1	6	1	1	699.9912	1	0	800	360678.8785	 0.0044	 0.0198	 0.8366	 1.5537	 2.2547	0
103	1	7	1	1	699.9689	1	0	800	360678.8785	 0.0044	 0.0268	 0.8436	 1.5605	 2.2614	0
103	1	8	1	1	483.8039	56	1	800	360678.8785	 0.0044	 0.0214	 0.8381	 1.5549	 2.0403	0
103	1	9	1	1	699.7548	1	0	800	360678.8785	 0.0044	 2.0607	 2.8718	 3.5887	 4.2894	0
103	1	10	1	1	565.5107	29	1	800	360678.8785	 0.0044	 0.0192	 0.8363	 1.5531	 2.1198	0
103	1	11	1	1	359.8212	29	1	800	360678.8785	 0.0044	 2.1397	 2.9534	 3.6703	 4.0317	0
103	1	12	1	1	435.7048	56	1	800	360678.8785	 0.0044	 4.0536	 4.8704	 5.5872	 6.0240	0
103	1	1	2	1	609.0416	29	1	800	360678.8785	 0.0044	 0.0159	 0.8325	 1.5492	 2.1595	 6.0264
103	1	2	2	1	394.0060	56	0	800	360678.8785	 0.0044	 2.1826	 2.9996	 3.7163	 4.1115	 6.0264
103	1	3	2	1	699.6812	1	0	800	360678.8785	 0.0044	 0.0250	 0.8466	 1.5586	 2.2591	 6.0264
103	1	4	2	1	315.4625	29	0	800	360678.8785	 0.0044	 0.0305	 0.8473	 1.5641	 1.8806	 6.0264
103	1	5	2	1	561.6751	56	1	800	360678.8785	 0.0044	 0.0231	 0.8400	 1.5569	 2.1197	 6.0264
103	1	6	2	1	676.6172	29	1	800	360678.8785	 0.0044	 2.1403	 2.9572	 3.6739	 4.3517	 6.0264
103	1	7	2	1	699.5442	1	0	800	360678.8785	 0.0044	 4.3740	 5.1908	 5.9078	 6.6083	 6.0264
103	1	8	2	1	589.5963	56	1	800	360678.8785	 0.0044	 0.0274	 0.8442	 1.5610	 2.1519	 6.0264
103	1	9	2	1	463.9694	29	1	800	360678.8785	 0.0044	 2.1778	 2.9946	 3.7115	 4.1765	 6.0264
103	1	10	2	1	526.5404	56	1	800	360678.8785	 0.0044	 4.1949	 5.0118	 5.7286	 6.2563	 6.0264
103	1	11	2	1	378.8853	56	1	800	360678.8785	 0.0044	 6.2785	 7.0955	 7.8122	 8.1922	 6.0264
103	1	12	2	1	397.1559	56	1	800	360678.8785	 0.0044	 8.2124	 9.0291	 9.7460	10.1442	 6.0264
103	1	1	3	1	684.4592	56	0	800	360678.8785	 0.0044	 0.0210	 0.8377	 1.5546	 2.2401	10.1464
103	1	2	3	1	484.2547	29	1	800	360678.8785	 0.0044	 0.0214	 0.8381	 1.5550	 2.0402	10.1464
103	1	3	3	1	681.8218	56	1	800	360678.8785	 0.0044	 2.0607	 2.8719	 3.5887	 4.2716	10.1464
103	1	4	3	1	696.6934	29	1	800	360678.8785	 0.0044	 4.2889	 5.1057	 5.8225	 6.5202	10.1464
103	1	5	3	1	374.0039	56	1	800	360678.8785	 0.0044	 6.5393	 7.3562	 8.0731	 8.4480	10.1464
103	1	6	3	1	495.9712	56	1	800	360678.8785	 0.0044	 8.4730	 9.2899	10.0067	10.5037	10.1464
103	1	7	3	1	405.3820	56	1	800	360678.8785	 0.0044	10.5233	11.3403	12.0572	12.4637	10.1464
103	1	8	3	1	447.5052	29	1	800	360678.8785	 0.0044	12.4785	13.2905	14.0074	14.4559	10.1464
103	1	9	3	1	511.3099	29	0	800	360678.8785	 0.0044	14.4765	15.2910	16.0077	16.5200	10.1464
103	1	10	3	1	699.8145	1	0	800	360678.8785	 0.0044	 0.0231	 0.8400	 1.5568	 2.2574	10.1464
103	1	11	3	1	500.3305	29	1	800	360678.8785	 0.0044	 0.0215	 0.8382	 1.5550	 2.0563	10.1464
103	1	12	3	1	433.0936	56	1	800	360678.8785	 0.0044	 2.0732	 2.8887	 3.6055	 4.0399	10.1464
103	1	1	4	1	457.9784	29	1	800	360678.8785	 0.0044	 0.0190	 0.8321	 1.5490	 2.0080	 4.0420
103	1	2	4	1	505.0897	29	0	800	360678.8785	 0.0044	 2.0323	 2.8491	 3.5659	 4.0720	 4.0420
103	1	3	4	1	497.6600	56	1	800	360678.8785	 0.0044	 0.0243	 0.8410	 1.5579	 2.0565	 4.0420
103	1	4	4	1	519.1420	29	1	800	360678.8785	 0.0044	 2.0774	 2.8915	 3.6082	 4.1283	 4.0420
103	1	5	4	1	427.4016	29	1	800	360678.8785	 0.0044	 4.1458	 4.9586	 5.6753	 6.1038	 4.0420
103	1	6	4	1	348.3263	56	1	800	360678.8785	 0.0044	 6.1255	 6.9422	 7.6591	 8.0085	 4.0420
103	1	7	4	1	432.0515	29	1	800	360678.8785	 0.0044	 8.0286	 8.8426	 9.5595	 9.9924	 4.0420
103	1	8	4	1	631.8959	29	1	800	360678.8785	 0.0044	10.0095	10.8262	11.5431	12.1761	 4.0420
103	1	9	4	1	408.1895	29	1	800	360678.8785	 0.0044	12.1957	13.0101	13.7268	14.1360	 4.0420
103	1	10	4	1	496.7166	56	0	800	360678.8785	 0.0044	14.1603	14.9771	15.6939	16.1918	 4.0420
103	1	11	4	1	406.1177	56	1	800	360678.8785	 0.0044	 0.0148	 0.8275	 1.5443	 1.9514	 4.0420
103	1	12	4	1	551.6950	29	1	800	360678.8785	 0.0044	 1.9777	 2.7946	 3.5114	 4.0640	 4.0420
103	1	1	5	1	699.7971	1	0	800	360678.8785	 0.0044	 0.0134	 0.8272	 1.5440	 2.2447	 4.0662
103	1	2	5	1	666.1946	56	0	800	360678.8785	 0.0044	 0.0076	 0.8246	 1.5413	 2.2084	 4.0662
103	1	3	5	1	540.0972	29	1	800	360678.8785	 0.0044	 0.0216	 0.8385	 1.5554	 2.0964	 4.0662
103	1	4	5	1	487.5869	56	0	800	360678.8785	 0.0044	 2.1221	 2.9389	 3.6557	 4.1442	 4.0662
103	1	5	5	1	439.0534	56	1	800	360678.8785	 0.0044	 0.0182	 0.8353	 1.5520	 1.9920	 4.0662
103	1	6	5	1	698.6930	1	0	800	360678.8785	 0.0044	 2.0078	 2.8190	 3.5358	 4.2361	 4.0662
103	1	7	5	1	699.9357	1	0	800	360678.8785	 0.0044	 0.0261	 0.8410	 1.5580	 2.2587	 4.0662
103	1	8	5	1	363.3526	56	1	800	360678.8785	 0.0044	 0.0205	 0.8314	 1.5482	 1.9125	 4.0662
103	1	9	5	1	429.7313	56	1	800	360678.8785	 0.0044	 1.9324	 2.7484	 3.4652	 3.8959	 4.0662
103	1	10	5	1	414.4261	29	0	800	360678.8785	 0.0044	 3.9161	 4.7321	 5.4490	 5.8643	 4.0662
103	1	11	5	1	573.7099	29	1	800	360678.8785	 0.0044	 0.0290	 0.8441	 1.5609	 2.1357	 4.0662
103	1	12	5	1	699.8992	1	0	800	360678.8785	 0.0044	 2.1637	 2.9778	 3.6946	 4.3953	 4.0662
103	1	1	6	1	450.6712	56	1	800	360678.8785	 0.0044	 0.0113	 0.8233	 1.5401	 1.9918	 0.0021
103	1	2	6	1	490.7789	29	1	800	360678.8785	 0.0044	 2.0090	 2.8238	 3.5406	 4.0323	 0.0021
103	1	3	6	1	431.9360	29	1	800	360678.8785	 0.0044	 4.0603	 4.8743	 5.5909	 6.0238	 0.0021
103	1	4	6	1	408.8618	29	1	800	360678.8785	 0.0044	 6.0415	 6.8578	 7.5746	 7.9843	 0.0021
103	1	5	6	1	337.1343	56	1	800	360678.8785	 0.0044	 8.0109	 8.8249	 9.5416	 9.8798	 0.0021
103	1	6	6	1	341.8235	29	1	800	360678.8785	 0.0044	 9.8961	10.7085	11.4254	11.7682	 0.0021
103	1	7	6	1	321.9369	29	1	800	360678.8785	 0.0044	11.7971	12.6089	13.3257	13.6486	 0.0021
103	1	8	6	1	309.9421	29	0	800	360678.8785	 0.0044	13.6647	14.4760	15.1928	15.5038	 0.0021
103	1	9	6	1	501.1346	29	0	800	360678.8785	 0.0044	 0.0281	 0.8450	 1.5618	 2.0639	 0.0021
103	1	10	6	1	351.1790	56	1	800	360678.8785	 0.0044	 0.0156	 0.8274	 1.5442	 1.8964	 0.0021
103	1	11	6	1	355.0456	29	1	800	360678.8785	 0.0044	 1.9111	 2.7277	 3.4446	 3.8006	 0.0021
103	1	12	6	1	349.4213	29	1	800	360678.8785	 0.0044	 3.8287	 4.6447	 5.3615	 5.7120	 0.0021
103	1	1	7	1	342.1283	56	1	800	360678.8785	 0.0044	 0.0201	 0.8361	 1.5529	 1.8960	 5.7142
103	1	2	7	1	297.3609	56	1	800	360678.8785	 0.0044	 1.9247	 2.7365	 3.4534	 3.7518	 5.7142
103	1	3	7	1	543.5691	29	1	800	360678.8785	 0.0044	 3.7706	 4.5870	 5.3037	 5.8482	 5.7142
103	1	4	7	1	418.6899	29	1	800	360678.8785	 0.0044	 5.8717	 6.6874	 7.4040	 7.8237	 5.7142
103	1	5	7	1	379.8248	56	1	800	360678.8785	 0.0044	 7.8428	 8.6543	 9.3711	 9.7518	 5.7142
103	1	6	7	1	350.0391	29	1	800	360678.8785	 0.0044	 9.7710	10.5880	11.3049	11.6559	 5.7142
103	1	7	7	1	441.5503	56	1	800	360678.8785	 0.0044	11.6714	12.4884	13.2051	13.6477	 5.7142
103	1	8	7	1	337.1959	56	1	800	360678.8785	 0.0044	13.6751	14.4887	15.2056	15.5438	 5.7142
103	1	9	7	1	541.9684	56	1	800	360678.8785	 0.0044	15.5602	16.3726	17.0892	17.6321	 5.7142
103	1	10	7	1	408.9620	29	1	800	360678.8785	 0.0044	17.6608	18.4728	19.1898	19.5998	 5.7142
103	1	11	7	1	282.4144	56	1	800	360678.8785	 0.0044	19.6283	20.4398	21.1568	21.4401	 5.7142
103	1	12	7	1	352.2284	29	1	800	360678.8785	 0.0044	21.4571	22.2736	22.9904	23.3438	 5.7142
103	2	1	1	1	427.2069	29	1	800	360994.6296	 0.0009	 0.0149	 0.8311	 1.5480	 1.9762	0
103	2	2	1	1	419.6572	56	1	800	360994.6296	 0.0009	 2.0021	 2.8149	 3.5319	 3.9529	0
103	2	3	1	1	372.2812	56	1	800	360994.6296	 0.0009	 3.9695	 4.7819	 5.4987	 5.8720	0
103	2	4	1	1	415.2209	56	1	800	360994.6296	 0.0009	 5.9033	 6.7157	 7.4325	 7.8487	0
103	2	5	1	1	303.0736	56	1	800	360994.6296	 0.0009	 7.8659	 8.6827	 9.3996	 9.7042	0
103	2	6	1	1	365.2003	56	1	800	360994.6296	 0.0009	 9.7197	10.5331	11.2500	11.6162	0
103	2	7	1	1	368.4514	56	1	800	360994.6296	 0.0009	11.6332	12.4501	13.1669	13.5363	0
103	2	8	1	1	587.4740	29	1	800	360994.6296	 0.0009	13.5504	14.3671	15.0840	15.6724	0
103	2	9	1	1	444.2492	29	1	800	360994.6296	 0.0009	15.7024	16.5175	17.2344	17.6798	0
103	2	10	1	1	428.7281	56	1	800	360994.6296	 0.0009	17.7050	18.5179	19.2348	19.6645	0
103	2	11	1	1	284.1325	56	1	800	360994.6296	 0.0009	19.6892	20.5016	21.2185	21.5038	0
103	2	12	1	1	483.0318	29	1	800	360994.6296	 0.0009	21.5198	22.3353	23.0521	23.5361	0
103	2	13	1	1	337.4730	56	1	800	360994.6296	 0.0009	23.5528	24.3690	25.0858	25.4242	0
103	2	14	1	1	485.8049	56	1	800	360994.6296	 0.0009	25.4369	26.2527	26.9695	27.4563	0
103	2	15	1	1	435.6574	29	1	800	360994.6296	 0.0009	27.4720	28.2866	29.0032	29.4399	0
103	2	16	1	1	332.5517	56	1	800	360994.6296	 0.0009	29.4546	30.2702	30.9869	31.3204	0
103	2	17	1	1	360.0414	29	1	800	360994.6296	 0.0009	31.3375	32.1539	32.8706	33.2321	0
103	2	18	1	1	627.7271	29	1	800	360994.6296	 0.0009	33.2574	34.0709	34.7878	35.4164	0
103	2	19	1	1	508.0440	56	1	800	360994.6296	 0.0009	35.4407	36.2546	36.9714	37.4804	0
103	2	20	1	1	320.2968	56	1	800	360994.6296	 0.0009	37.5097	38.3217	39.0387	39.3600	0
103	2	21	1	1	404.8228	29	1	800	360994.6296	 0.0009	39.3911	40.2054	40.9222	41.3280	0
103	2	22	1	1	590.3905	29	1	800	360994.6296	 0.0009	41.3423	42.1557	42.8727	43.4640	0
103	2	23	1	1	431.5573	29	1	800	360994.6296	 0.0009	43.4893	44.3061	45.0230	45.4558	0
103	2	24	1	1	408.5649	29	1	800	360994.6296	 0.0009	45.4775	46.2898	47.0067	47.4162	0
103	2	25	1	1	433.7493	56	1	800	360994.6296	 0.0009	47.4399	48.2569	48.9737	49.4084	0
103	2	26	1	1	425.3344	56	1	800	360994.6296	 0.0009	49.4297	50.2406	50.9574	51.3837	0
103	2	27	1	1	481.6053	29	1	800	360994.6296	 0.0009	51.4077	52.2244	52.9412	53.4238	0
103	2	28	1	1	519.7614	56	1	800	360994.6296	 0.0009	53.4462	54.2580	54.9750	55.4958	0
103	2	29	1	1	485.4232	29	1	800	360994.6296	 0.0009	55.5098	56.3251	57.0419	57.5282	0
103	2	30	1	1	395.8346	56	1	800	360994.6296	 0.0009	57.5493	58.3589	59.0756	59.4724	0
103	3	1	1	1	481.1407	56	1	800	361140.2898	 0.0008	 0.0079	 0.8244	 1.5412	 2.0233	0
103	3	2	1	1	407.4520	29	1	800	361140.2898	 0.0008	 2.0433	 2.8580	 3.5750	 3.9834	0
103	3	3	1	1	352.3695	29	1	800	361140.2898	 0.0008	 4.0082	 4.8253	 5.5419	 5.8953	0
103	3	4	1	1	355.6960	29	1	800	361140.2898	 0.0008	 5.9160	 6.7256	 7.4423	 7.7992	0
103	3	5	1	1	552.0899	29	1	800	361140.2898	 0.0008	 7.8091	 8.6260	 9.3427	 9.8958	0
103	3	6	1	1	491.8300	29	1	800	361140.2898	 0.0008	 9.9148	10.7263	11.4430	11.9357	0
103	3	7	1	1	416.7489	29	1	800	361140.2898	 0.0008	11.9599	12.7767	13.4935	13.9114	0
103	3	8	1	1	313.6227	29	1	800	361140.2898	 0.0008	13.9326	14.7439	15.4605	15.7752	0
103	3	9	1	1	343.0170	56	1	800	361140.2898	 0.0008	15.7981	16.6107	17.3275	17.6715	0
103	3	10	1	1	338.8080	56	1	800	361140.2898	 0.0008	17.6949	18.5110	19.2279	19.5677	0
103	3	11	1	1	415.4474	29	1	800	361140.2898	 0.0008	19.5792	20.3949	21.1116	21.5279	0
103	3	12	1	1	336.3193	56	1	800	361140.2898	 0.0008	21.5475	22.3620	23.0786	23.4159	0
103	4	1	1	2	482.3859	29	1	800	361216.0264	 0.0010	 0.0200	 0.8319	 1.5486	 2.0320	0
103	4	2	1	2	320.8317	56	1	800	361216.0264	 0.0010	 2.0535	 2.8657	 3.5824	 3.9042	0
103	4	3	1	2	501.5881	56	0	800	361216.0264	 0.0010	 3.9171	 4.7327	 5.4495	 5.9520	0
103	4	4	1	2	488.0186	56	1	800	361216.0264	 0.0010	 0.0257	 0.8423	 1.5591	 2.0481	0
103	4	5	1	2	494.8637	29	1	800	361216.0264	 0.0010	 2.0598	 2.8762	 3.5927	 4.0885	0
103	4	6	1	2	452.2347	29	1	800	361216.0264	 0.0010	 4.1109	 4.9264	 5.6432	 6.0964	0
103	4	7	1	2	499.2139	56	1	800	361216.0264	 0.0010	 6.1166	 6.9268	 7.6435	 8.1438	0
103	4	8	1	2	393.4841	29	1	800	361216.0264	 0.0010	 8.1646	 8.9771	 9.6939	10.0883	0
103	4	9	1	2	323.3464	56	1	800	361216.0264	 0.0010	10.1114	10.9275	11.6443	11.9685	0
103	4	10	1	2	352.1544	56	1	800	361216.0264	 0.0010	11.9785	12.7945	13.5115	13.8646	0
103	4	11	1	2	482.9558	29	1	800	361216.0264	 0.0010	13.8831	14.6949	15.4117	15.8961	0
103	4	12	1	2	393.4541	29	1	800	361216.0264	 0.0010	15.9126	16.7287	17.4456	17.8400	0
103	4	13	1	2	435.6236	56	1	800	361216.0264	 0.0010	17.8626	18.6789	19.3958	19.8324	0
103	4	14	1	2	299.2221	56	1	800	361216.0264	 0.0010	19.8497	20.6627	21.3796	21.6799	0
103	4	15	1	2	553.1448	29	1	800	361216.0264	 0.0010	21.7013	22.5132	23.2298	23.7839	0
103	4	16	1	2	308.7829	56	1	800	361216.0264	 0.0010	23.8060	24.6134	25.3303	25.6401	0
103	4	17	1	2	297.9967	56	1	800	361216.0264	 0.0010	25.6645	26.4805	27.1972	27.4961	0
103	4	18	1	2	343.9326	56	1	800	361216.0264	 0.0010	27.5150	28.3310	29.0477	29.3928	0
103	4	19	1	2	555.5404	56	1	800	361216.0264	 0.0010	29.4169	30.2311	30.9481	31.5045	0
103	4	20	1	2	270.9900	56	1	800	361216.0264	 0.0010	31.5156	32.3315	33.0484	33.3206	0
103	4	21	1	2	309.8350	56	1	800	361216.0264	 0.0010	33.3396	34.1486	34.8654	35.1761	0
103	4	22	1	2	307.3197	29	1	800	361216.0264	 0.0010	35.1986	36.0157	36.7324	37.0406	0
103	4	23	1	2	296.3230	56	1	800	361216.0264	 0.0010	37.0496	37.8660	38.5827	38.8801	0
103	4	24	1	2	325.8270	56	1	800	361216.0264	 0.0010	38.9010	39.7163	40.4333	40.7602	0
103	4	25	1	2	699.8038	1	0	800	361216.0264	 0.0010	40.7839	41.6001	42.3168	43.0174	0
103	4	26	1	2	638.6584	56	1	800	361216.0264	 0.0010	 0.0113	 0.8272	 1.5441	 2.1839	0
103	4	27	1	2	699.4080	1	0	800	361216.0264	 0.0010	 2.1948	 3.0110	 3.7278	 4.4280	0
103	4	28	1	2	321.9431	56	1	800	361216.0264	 0.0010	 0.0215	 0.8329	 1.5498	 1.8726	0
103	4	29	1	2	358.4377	29	1	800	361216.0264	 0.0010	 1.8838	 2.6999	 3.4169	 3.7763	0
103	4	30	1	2	417.3537	56	1	800	361216.0264	 0.0010	 3.8003	 4.6170	 5.3338	 5.7522	0
103	5	1	1	2	433.7062	29	1	800	361302.4076	 0.0007	 0.0198	 0.8322	 1.5490	 1.9836	0
103	5	2	1	2	593.7449	29	1	800	361302.4076	 0.0007	 1.9990	 2.8159	 3.5327	 4.1278	0
103	5	3	1	2	435.8070	56	1	800	361302.4076	 0.0007	 4.1504	 4.9664	 5.6831	 6.1199	0
103	5	4	1	2	419.7014	29	1	800	361302.4076	 0.0007	 6.1373	 6.9500	 7.6669	 8.0876	0
103	5	5	1	2	699.5418	1	0	800	361302.4076	 0.0007	 8.1053	 8.9171	 9.6338	10.3342	0
103	5	6	1	2	310.5720	56	1	800	361302.4076	 0.0007	 0.0114	 0.8277	 1.5444	 1.8559	0
103	5	7	1	2	547.7384	29	1	800	361302.4076	 0.0007	 1.8786	 2.6945	 3.4114	 3.9601	0
103	5	8	1	2	582.8805	56	1	800	361302.4076	 0.0007	 3.9817	 4.7950	 5.5117	 6.0957	0
103	5	9	1	2	449.2325	29	1	800	361302.4076	 0.0007	 6.1159	 6.9287	 7.6453	 8.0956	0
103	5	10	1	2	337.3697	56	1	800	361302.4076	 0.0007	 8.1173	 8.9291	 9.6458	 9.9841	0
103	5	11	1	2	341.4174	29	1	800	361302.4076	 0.0007	 9.9961	10.8127	11.5296	11.8719	0
103	5	12	1	2	345.3380	56	0	800	361302.4076	 0.0007	11.9008	12.7132	13.4300	13.7763	0
103	5	1	2	2	381.2053	29	1	800	361302.4076	 0.0007	 0.0163	 0.8294	 1.5462	 1.9284	 0.0021
103	5	2	2	2	310.9249	56	1	800	361302.4076	 0.0007	 1.9501	 2.7630	 3.4798	 3.7918	 0.0021
103	5	3	2	2	388.6299	29	1	800	361302.4076	 0.0007	 3.8154	 4.6301	 5.3469	 5.7364	 0.0021
103	5	4	2	2	430.2405	29	1	800	361302.4076	 0.0007	 5.7477	 6.5638	 7.2806	 7.7119	 0.0021
103	5	5	2	2	318.9217	56	1	800	361302.4076	 0.0007	 7.7358	 8.5475	 9.2643	 9.5843	 0.0021
103	5	6	2	2	299.6797	56	1	800	361302.4076	 0.0007	 9.6018	10.4145	11.1314	11.4321	 0.0021
103	5	7	2	2	305.6376	56	1	800	361302.4076	 0.0007	11.4530	12.2648	12.9817	13.2885	 0.0021
103	5	8	2	2	391.3113	29	1	800	361302.4076	 0.0007	13.2985	14.1152	14.8321	15.2244	 0.0021
103	5	9	2	2	281.0162	56	1	800	361302.4076	 0.0007	15.2500	16.0656	16.7824	17.0643	 0.0021
103	5	10	2	2	699.4824	1	0	800	361302.4076	 0.0007	17.0874	17.8993	18.6161	19.3163	 0.0021
103	5	11	2	2	345.8448	56	1	800	361302.4076	 0.0007	 0.0249	 0.8409	 1.5577	 1.9045	 0.0021
103	5	12	2	2	317.1077	29	1	800	361302.4076	 0.0007	 1.9277	 2.7413	 3.4581	 3.7761	 0.0021
103	5	1	3	2	458.2161	29	1	800	361302.4076	 0.0007	 0.0215	 0.8320	 1.5488	 2.0080	 3.7782
103	5	2	3	2	408.6598	56	1	800	361302.4076	 0.0007	 2.0319	 2.8490	 3.5658	 3.9755	 3.7782
103	5	3	3	2	306.2074	56	1	800	361302.4076	 0.0007	 3.9995	 4.8160	 5.5328	 5.8399	 3.7782
103	5	4	3	2	311.6553	56	1	800	361302.4076	 0.0007	 5.8499	 6.6663	 7.3831	 7.6957	 3.7782
103	5	5	3	2	364.4463	29	1	800	361302.4076	 0.0007	 7.7174	 8.5334	 9.2501	 9.6157	 3.7782
103	5	6	3	2	247.5379	56	1	800	361302.4076	 0.0007	 9.6374	10.4503	11.1671	11.4156	 3.7782
103	5	7	3	2	503.3732	29	1	800	361302.4076	 0.0007	11.4390	12.2507	12.9675	13.4718	 3.7782
103	5	8	3	2	285.2081	56	1	800	361302.4076	 0.0007	13.4893	14.3011	15.0179	15.3040	 3.7782
103	5	9	3	2	355.1609	29	1	800	361302.4076	 0.0007	15.3210	16.1349	16.8517	17.2078	 3.7782
103	5	10	3	2	318.2965	29	1	800	361302.4076	 0.0007	17.2196	18.0351	18.7519	19.0714	 3.7782
103	5	11	3	2	307.8878	56	1	800	361302.4076	 0.0007	19.0911	19.9021	20.6190	20.9278	 3.7782
103	5	12	3	2	296.5281	56	1	800	361302.4076	 0.0007	20.9572	21.7693	22.4862	22.7837	 3.7782
103	6	1	1	2	405.8444	29	1	800	361398.1429	 0.0010	 0.0165	 0.8282	 1.5449	 1.9519	0
103	6	2	1	2	303.8593	56	1	800	361398.1429	 0.0010	 1.9622	 2.7784	 3.4952	 3.8000	0
103	6	3	1	2	269.6429	56	1	800	361398.1429	 0.0010	 3.8129	 4.6288	 5.3456	 5.6162	0
103	6	4	1	2	348.3934	56	1	800	361398.1429	 0.0010	 5.6364	 6.4458	 7.1627	 7.5121	0
103	6	5	1	2	699.9649	1	0	800	361398.1429	 0.0010	 7.5361	 8.3461	 9.0629	 9.7637	0
103	6	6	1	2	394.5449	29	1	800	361398.1429	 0.0010	 0.0184	 0.8318	 1.5483	 1.9438	0
103	6	7	1	2	347.8494	29	1	800	361398.1429	 0.0010	 1.9658	 2.7821	 3.4989	 3.8479	0
103	6	8	1	2	343.0606	29	1	800	361398.1429	 0.0010	 3.8695	 4.6825	 5.3993	 5.7435	0
103	6	9	1	2	291.2403	56	1	800	361398.1429	 0.0010	 5.7662	 6.5829	 7.2997	 7.5919	0
103	6	10	1	2	313.1484	56	1	800	361398.1429	 0.0010	 7.6209	 8.4331	 9.1500	 9.4640	0
103	6	11	1	2	342.0659	29	1	800	361398.1429	 0.0010	 9.4877	10.3002	11.0170	11.3600	0
103	6	12	1	2	329.4364	56	1	800	361398.1429	 0.0010	11.3840	12.2006	12.9175	13.2480	0
103	6	13	1	2	398.3147	56	1	800	361398.1429	 0.0010	13.2721	14.0845	14.8011	15.2003	0
103	6	14	1	2	366.9124	56	1	800	361398.1429	 0.0010	15.2219	16.0346	16.7515	17.1195	0
103	6	15	1	2	322.7471	29	1	800	361398.1429	 0.0010	17.1357	17.9517	18.6686	18.9925	0
103	6	16	1	2	415.1650	29	1	800	361398.1429	 0.0010	19.0022	19.8187	20.5356	20.9517	0
103	6	17	1	2	480.5513	56	1	800	361398.1429	 0.0010	20.9688	21.7858	22.5025	22.9841	0
103	6	18	1	2	366.5617	29	1	800	361398.1429	 0.0010	23.0074	23.8195	24.5362	24.9038	0
103	6	19	1	2	489.8954	29	1	800	361398.1429	 0.0010	24.9247	25.7364	26.4532	26.9440	0
103	6	20	1	2	504.0354	29	1	800	361398.1429	 0.0010	26.9541	27.7703	28.4870	28.9920	0
103	6	21	1	2	309.7569	56	1	800	361398.1429	 0.0010	29.0113	29.8206	30.5374	30.8481	0
103	6	22	1	2	290.6629	56	1	800	361398.1429	 0.0010	30.8714	31.6876	32.4046	32.6962	0
103	6	23	1	2	297.0870	56	1	800	361398.1429	 0.0010	32.7053	33.5212	34.2382	34.5362	0
103	6	24	1	2	253.8604	56	1	800	361398.1429	 0.0010	34.5587	35.3718	36.0886	36.3436	0
103	6	25	1	2	334.4564	56	1	800	361398.1429	 0.0010	36.3554	37.1721	37.8887	38.2241	0
103	6	26	1	2	353.8536	56	1	800	361398.1429	 0.0010	38.2398	39.0557	39.7725	40.1275	0
103	6	27	1	2	238.4035	56	1	800	361398.1429	 0.0010	40.1431	40.9561	41.6728	41.9124	0
103	6	28	1	2	358.4706	29	1	800	361398.1429	 0.0010	41.9265	42.7398	43.4566	43.8160	0
103	6	29	1	2	409.0233	56	1	800	361398.1429	 0.0010	43.8425	44.6567	45.3737	45.7837	0
103	6	30	1	2	266.5902	56	1	800	361398.1429	 0.0010	45.8071	46.6238	47.3407	47.6082	0
103	7	1	1	3	699.5366	1	0	800	361475.3757	 0.0008	 0.0232	 0.8397	 1.5564	 2.2567	0
103	7	2	1	3	427.2443	56	1	800	361475.3757	 0.0008	 0.0219	 0.8382	 1.5550	 1.9834	0
103	7	3	1	3	244.5867	56	1	800	361475.3757	 0.0008	 2.0057	 2.8219	 3.5387	 3.7843	0
103	7	4	1	3	323.6832	56	1	800	361475.3757	 0.0008	 3.8068	 4.6223	 5.3392	 5.6638	0
103	7	5	1	3	296.9985	56	1	800	361475.3757	 0.0008	 5.6732	 6.4895	 7.2062	 7.5041	0
103	7	6	1	3	406.6988	29	1	800	361475.3757	 0.0008	 7.5275	 8.3396	 9.0564	 9.4640	0
103	7	7	1	3	432.1906	56	1	800	361475.3757	 0.0008	 9.4739	10.2901	11.0070	11.4401	0
103	7	8	1	3	344.0780	29	1	800	361475.3757	 0.0008	11.4568	12.2737	12.9906	13.3356	0
103	7	9	1	3	379.9140	56	1	800	361475.3757	 0.0008	13.3580	14.1741	14.8909	15.2718	0
103	7	10	1	3	438.1519	29	1	800	361475.3757	 0.0008	15.2958	16.1078	16.8247	17.2639	0
103	7	11	1	3	366.9525	29	1	800	361475.3757	 0.0008	17.2750	18.0916	18.8083	19.1763	0
103	7	12	1	3	304.9231	56	1	800	361475.3757	 0.0008	19.1972	20.0086	20.7255	21.0316	0
103	7	1	2	3	304.8751	56	1	800	361475.3757	 0.0008	 0.0207	 0.8333	 1.5500	 1.8559	21.0337
103	7	2	2	3	342.3252	29	1	800	361475.3757	 0.0008	 1.8672	 2.6837	 3.4005	 3.7443	21.0337
103	7	3	2	3	353.8494	29	1	800	361475.3757	 0.0008	 3.7675	 4.5840	 5.3008	 5.6557	21.0337
103	7	4	2	3	693.7980	29	1	800	361475.3757	 0.0008	 5.6683	 6.4844	 7.2012	 7.8960	21.0337
103	7	5	2	3	346.7290	29	1	800	361475.3757	 0.0008	 7.9195	 8.7348	 9.4515	 9.7993	21.0337
103	7	6	2	3	462.5198	56	1	800	361475.3757	 0.0008	 9.8219	10.6351	11.3521	11.8156	21.0337
103	7	7	2	3	453.2531	29	1	800	361475.3757	 0.0008	11.8378	12.6523	13.3690	13.8234	21.0337
103	7	8	2	3	349.6803	29	1	800	361475.3757	 0.0008	13.8432	14.6527	15.3694	15.7199	21.0337
103	7	9	2	3	344.8612	29	1	800	361475.3757	 0.0008	15.7425	16.5529	17.2700	17.6158	21.0337
103	7	10	2	3	324.5636	56	1	800	361475.3757	 0.0008	17.6364	18.4535	19.1701	19.4957	21.0337
103	7	11	2	3	313.2839	56	1	800	361475.3757	 0.0008	19.5218	20.3370	21.0538	21.3680	21.0337
103	7	12	2	3	366.1587	29	1	800	361475.3757	 0.0008	21.3914	22.2040	22.9209	23.2880	21.0337
103	8	1	1	3	694.8175	29	1	800	361597.2604	 0.0007	 0.0109	 0.8271	 1.5438	 2.2397	0
103	8	2	1	3	341.0753	29	1	800	361597.2604	 0.0007	 2.2618	 3.0775	 3.7943	 4.1363	0
103	8	3	1	3	313.1029	56	1	800	361597.2604	 0.0007	 4.1452	 4.9612	 5.6780	 5.9921	0
103	8	4	1	3	366.2748	29	1	800	361597.2604	 0.0007	 6.0166	 6.8281	 7.5450	 7.9122	0
103	8	5	1	3	305.0321	29	1	800	361597.2604	 0.0007	 7.9336	 8.7453	 9.4620	 9.7680	0
103	8	6	1	3	334.8395	29	1	800	361597.2604	 0.0007	 9.7792	10.5956	11.3124	11.6481	0
103	8	7	1	3	362.4956	29	1	800	361597.2604	 0.0007	11.6681	12.4793	13.1961	13.5597	0
103	8	8	1	3	317.8472	56	1	800	361597.2604	 0.0007	13.5823	14.3965	15.1131	15.4319	0
103	8	9	1	3	290.3483	56	1	800	361597.2604	 0.0007	15.4487	16.2634	16.9802	17.2716	0
103	8	10	1	3	296.9920	56	1	800	361597.2604	 0.0007	17.2810	18.0970	18.8139	19.1119	0
103	8	11	1	3	310.7555	56	1	800	361597.2604	 0.0007	19.1355	19.9476	20.6642	20.9761	0
103	8	12	1	3	340.0585	29	1	800	361597.2604	 0.0007	20.9997	21.8146	22.5312	22.8722	0
103	8	13	1	3	416.3753	29	1	800	361597.2604	 0.0007	22.8813	23.6982	24.4149	24.8322	0
103	8	14	1	3	312.6362	56	1	800	361597.2604	 0.0007	24.8485	25.6653	26.3819	26.6957	0
103	8	15	1	3	293.9717	56	1	800	361597.2604	 0.0007	26.7179	27.5322	28.2490	28.5440	0
103	8	16	1	3	355.0006	56	0	800	361597.2604	 0.0007	28.5666	29.3825	30.0994	30.4555	0
103	8	17	1	3	456.0910	29	1	800	361597.2604	 0.0007	 0.0257	 0.8423	 1.5590	 2.0160	0
103	8	18	1	3	303.2761	56	1	800	361597.2604	 0.0007	 2.0264	 2.8426	 3.5595	 3.8637	0
103	8	19	1	3	421.0381	29	1	800	361597.2604	 0.0007	 3.8833	 4.6930	 5.4099	 5.8319	0
103	8	20	1	3	446.1919	29	1	800	361597.2604	 0.0007	 5.8511	 6.6602	 7.3768	 7.8240	0
103	8	21	1	3	349.8746	29	1	800	361597.2604	 0.0007	 7.8472	 8.6605	 9.3772	 9.7280	0
103	8	22	1	3	424.7833	29	1	800	361597.2604	 0.0007	 9.7487	10.5607	11.2776	11.7035	0
103	8	23	1	3	329.4385	56	1	800	361597.2604	 0.0007	11.7277	12.5444	13.2614	13.5920	0
103	8	24	1	3	302.1635	56	1	800	361597.2604	 0.0007	13.6150	14.4282	15.1450	15.4484	0
103	8	25	1	3	411.0693	29	1	800	361597.2604	 0.0007	15.4654	16.2786	16.9952	17.4075	0
103	8	26	1	3	332.6140	29	1	800	361597.2604	 0.0007	17.4289	18.2455	18.9624	19.2960	0
103	8	27	1	3	328.9172	29	1	800	361597.2604	 0.0007	19.3164	20.1293	20.8460	21.1759	0
103	8	28	1	3	573.2179	56	1	800	361597.2604	 0.0007	21.1971	22.0129	22.7297	23.3038	0
103	8	29	1	3	424.3917	29	1	800	361597.2604	 0.0007	23.3131	24.1301	24.8468	25.2721	0
103	8	30	1	3	377.1181	29	1	800	361597.2604	 0.0007	25.2811	26.0972	26.8138	27.1919	0
103	9	1	1	3	422.0884	29	1	800	361691.0156	 0.0008	 0.0198	 0.8361	 1.5528	 1.9759	0
103	9	2	1	3	343.6884	29	1	800	361691.0156	 0.0008	 1.9864	 2.8031	 3.5199	 3.8645	0
103	9	3	1	3	435.0959	56	1	800	361691.0156	 0.0008	 3.8874	 4.7034	 5.4202	 5.8562	0
103	9	4	1	3	395.1219	29	1	800	361691.0156	 0.0008	 5.8732	 6.6871	 7.4040	 7.8002	0
103	9	5	1	3	404.7908	56	1	800	361691.0156	 0.0008	 7.8210	 8.6375	 9.3544	 9.7602	0
103	9	6	1	3	333.9025	56	1	800	361691.0156	 0.0008	 9.7718	10.5879	11.3048	11.6398	0
103	9	7	1	3	619.1255	56	1	800	361691.0156	 0.0008	11.6593	12.4715	13.1884	13.8084	0
103	9	8	1	3	363.9495	56	1	800	361691.0156	 0.0008	13.8256	14.6386	15.3555	15.7203	0
103	9	9	1	3	678.1798	29	1	800	361691.0156	 0.0008	15.7419	16.5557	17.2725	17.9518	0
103	9	10	1	3	364.3503	29	1	800	361691.0156	 0.0008	17.9724	18.7896	19.5063	19.8720	0
103	9	11	1	3	319.6200	56	1	800	361691.0156	 0.0008	19.8937	20.7065	21.4234	21.7440	0
103	9	12	1	3	292.5448	56	1	800	361691.0156	 0.0008	21.7643	22.5736	23.2903	23.5839	0
103	10	1	1	4	410.3385	29	1	800	361724.1856	 0.0008	 0.0075	 0.8243	 1.5411	 1.9525	0
103	10	2	1	4	331.1722	56	1	800	361724.1856	 0.0008	 1.9788	 2.7914	 3.5081	 3.8405	0
103	10	3	1	4	351.4344	56	1	800	361724.1856	 0.0008	 3.8604	 4.6751	 5.3918	 5.7443	0
103	10	4	1	4	435.1484	29	1	800	361724.1856	 0.0008	 5.7603	 6.5754	 7.2922	 7.7282	0
103	10	5	1	4	307.4648	56	1	800	361724.1856	 0.0008	 7.7474	 8.5591	 9.2759	 9.5843	0
103	10	6	1	4	336.2121	29	1	800	361724.1856	 0.0008	 9.6094	10.4261	11.1429	11.4803	0
103	10	7	1	4	340.1465	56	0	800	361724.1856	 0.0008	11.4978	12.3098	13.0266	13.3678	0
103	10	8	1	4	348.6735	29	1	800	361724.1856	 0.0008	 0.0124	 0.8293	 1.5461	 1.8957	0
103	10	9	1	4	472.7012	29	1	800	361724.1856	 0.0008	 1.9129	 2.7297	 3.4464	 3.9201	0
103	10	10	1	4	439.5902	29	1	800	361724.1856	 0.0008	 3.9341	 4.7468	 5.4635	 5.9040	0
103	10	11	1	4	478.5733	29	1	800	361724.1856	 0.0008	 5.9302	 6.7470	 7.4640	 7.9436	0
103	10	12	1	4	340.6107	56	1	800	361724.1856	 0.0008	 7.9639	 8.7807	 9.4976	 9.8393	0
103	10	13	1	4	699.8559	1	0	800	361724.1856	 0.0008	 9.8643	10.6811	11.3979	12.0986	0
103	10	14	1	4	406.6128	56	1	800	361724.1856	 0.0008	 0.0264	 0.8432	 1.5600	 1.9681	0
103	10	15	1	4	423.8472	56	1	800	361724.1856	 0.0008	 1.9934	 2.8103	 3.5272	 3.9521	0
103	10	16	1	4	360.2318	56	1	800	361724.1856	 0.0008	 3.9772	 4.7940	 5.5108	 5.8720	0
103	10	17	1	4	299.1044	56	1	800	361724.1856	 0.0008	 5.8942	 6.7111	 7.4278	 7.7279	0
103	10	18	1	4	296.5975	56	1	800	361724.1856	 0.0008	 7.7446	 8.5614	 9.2781	 9.5758	0
103	10	19	1	4	414.7096	29	1	800	361724.1856	 0.0008	 9.5948	10.4118	11.1285	11.5442	0
103	10	20	1	4	287.6855	56	1	800	361724.1856	 0.0008	11.5641	12.3787	13.0955	13.3842	0
103	10	21	1	4	301.8355	56	1	800	361724.1856	 0.0008	13.3961	14.2125	14.9294	15.2323	0
103	10	22	1	4	315.1017	56	1	800	361724.1856	 0.0008	15.2517	16.0628	16.7796	17.0957	0
103	10	23	1	4	280.7593	56	1	800	361724.1856	 0.0008	17.1131	17.9299	18.6467	18.9284	0
103	10	24	1	4	486.8903	56	1	800	361724.1856	 0.0008	18.9467	19.7635	20.4803	20.9682	0
103	10	25	1	4	365.4596	29	1	800	361724.1856	 0.0008	20.9844	21.7972	22.5141	22.8805	0
103	10	26	1	4	280.1865	56	1	800	361724.1856	 0.0008	22.8975	23.7145	24.4310	24.7121	0
103	10	27	1	4	286.1071	56	1	800	361724.1856	 0.0008	24.7311	25.5480	26.2647	26.5518	0
103	10	28	1	4	381.0478	29	1	800	361724.1856	 0.0008	26.5693	27.3818	28.0984	28.4804	0
103	10	29	1	4	279.0920	56	1	800	361724.1856	 0.0008	28.4985	29.3154	30.0322	30.3123	0
103	10	30	1	4	476.9436	29	1	800	361724.1856	 0.0008	30.3321	31.1491	31.8659	32.3439	0
103	11	1	1	4	359.5733	56	1	800	361797.8818	 0.0008	 0.0171	 0.8338	 1.5507	 1.9116	0
103	11	2	1	4	330.8909	56	1	800	361797.8818	 0.0008	 1.9340	 2.7508	 3.4677	 3.7998	0
103	11	3	1	4	391.7783	29	1	800	361797.8818	 0.0008	 3.8177	 4.6346	 5.3514	 5.7441	0
103	11	4	1	4	392.6688	29	1	800	361797.8818	 0.0008	 5.7682	 6.5850	 7.3019	 7.6956	0
103	11	5	1	4	322.0778	56	1	800	361797.8818	 0.0008	 7.7186	 8.5355	 9.2522	 9.5754	0
103	11	6	1	4	487.2954	29	1	800	361797.8818	 0.0008	 9.5899	10.4024	11.1192	11.6077	0
103	11	7	1	4	293.4041	56	1	800	361797.8818	 0.0008	11.6211	12.4360	13.1529	13.4474	0
103	11	8	1	4	347.8107	29	1	800	361797.8818	 0.0008	13.4696	14.2864	15.0032	15.3520	0
103	11	9	1	4	335.3432	56	1	800	361797.8818	 0.0008	15.3699	16.1868	16.9036	17.2398	0
103	11	10	1	4	291.7794	56	1	800	361797.8818	 0.0008	17.2593	18.0705	18.7873	19.0802	0
103	11	11	1	4	337.1038	29	1	800	361797.8818	 0.0008	19.1040	19.9208	20.6377	20.9757	0
103	11	12	1	4	373.6494	29	1	800	361797.8818	 0.0008	20.9920	21.8046	22.5213	22.8959	0
103	12	1	1	4	359.2975	56	1	800	361829.7258	 0.0009	 0.0178	 0.8344	 1.5514	 1.9118	0
103	12	2	1	4	402.3651	29	1	800	361829.7258	 0.0009	 1.9349	 2.7517	 3.4684	 3.8718	0
103	12	3	1	4	404.2032	29	1	800	361829.7258	 0.0009	 3.8870	 4.7021	 5.4188	 5.8239	0
103	12	4	1	4	276.8793	56	1	800	361829.7258	 0.0009	 5.8354	 6.6524	 7.3692	 7.6473	0
103	12	5	1	4	347.6125	29	1	800	361829.7258	 0.0009	 7.6693	 8.4862	 9.2029	 9.5515	0
103	12	6	1	4	406.8917	29	1	800	361829.7258	 0.0009	 9.5696	10.3865	11.1033	11.5112	0
103	12	7	1	4	320.4768	56	1	800	361829.7258	 0.0009	11.5367	12.3535	13.0703	13.3917	0
103	12	8	1	4	317.0517	56	1	800	361829.7258	 0.0009	13.4080	14.2205	14.9374	15.2555	0
103	12	9	1	4	482.0428	29	1	800	361829.7258	 0.0009	15.2709	16.0876	16.8046	17.2876	0
103	12	10	1	4	368.3714	29	1	800	361829.7258	 0.0009	17.3044	18.1213	18.8378	19.2073	0
103	12	11	1	4	371.8000	56	1	800	361829.7258	 0.0009	19.2272	20.0385	20.7553	21.1280	0
103	12	12	1	4	342.3424	29	1	800	361829.7258	 0.0009	21.1408	21.9555	22.6721	23.0154	0
103	12	13	1	4	305.8648	56	1	800	361829.7258	 0.0009	23.0388	23.8557	24.5725	24.8794	0
103	12	14	1	4	358.8448	29	1	800	361829.7258	 0.0009	24.9059	25.7227	26.4395	26.7999	0
103	12	15	1	4	378.5183	29	1	800	361829.7258	 0.0009	26.8229	27.6397	28.3565	28.7360	0
103	12	16	1	4	275.9779	56	1	800	361829.7258	 0.0009	28.7568	29.5734	30.2904	30.5674	0
103	12	17	1	4	538.2301	29	1	800	361829.7258	 0.0009	30.5903	31.4071	32.1240	32.6633	0
103	12	18	1	4	326.7662	29	1	800	361829.7258	 0.0009	32.6781	33.4908	34.2076	34.5354	0
103	12	19	1	4	451.6612	29	1	800	361829.7258	 0.0009	34.5577	35.3746	36.0914	36.5440	0
103	12	20	1	4	570.8221	56	1	800	361829.7258	 0.0009	36.5604	37.3749	38.0917	38.6635	0
103	12	21	1	4	381.4974	29	1	800	361829.7258	 0.0009	38.6753	39.4921	40.2089	40.5914	0
103	12	22	1	4	287.7913	56	1	800	361829.7258	 0.0009	40.6119	41.4257	42.1424	42.4313	0
103	12	23	1	4	382.7758	29	1	800	361829.7258	 0.0009	42.4450	43.2594	43.9763	44.3599	0
103	12	24	1	4	432.5487	29	1	800	361829.7258	 0.0009	44.3763	45.1930	45.9100	46.3435	0
103	12	25	1	4	303.8891	56	1	800	361829.7258	 0.0009	46.3707	47.1935	47.9103	48.2153	0
103	12	26	1	4	470.1658	29	1	800	361829.7258	 0.0009	48.2271	49.0438	49.7606	50.2318	0
103	12	27	1	4	365.3062	29	1	800	361829.7258	 0.0009	50.2482	51.0608	51.7777	52.1439	0
103	12	28	1	4	384.2336	29	1	800	361829.7258	 0.0009	52.1616	52.9781	53.6946	54.0798	0
103	12	29	1	4	378.1057	29	0	800	361829.7258	 0.0009	54.0946	54.9116	55.6284	56.0075	0
103	12	30	1	4	699.5274	1	0	800	361829.7258	 0.0009	 0.0297	 0.8432	 1.5599	 2.2602	0
103	13	1	1	5	691.0004	29	1	800	361893.1340	 0.0009	 0.0149	 0.8311	 1.5479	 2.2398	0
103	13	2	1	5	304.2783	56	1	800	361893.1340	 0.0009	 2.2683	 3.0815	 3.7984	 4.1037	0
103	13	3	1	5	414.3634	29	1	800	361893.1340	 0.0009	 4.1164	 4.9319	 5.6487	 6.0640	0
103	13	4	1	5	447.2974	29	1	800	361893.1340	 0.0009	 6.0823	 6.8990	 7.6158	 8.0640	0
103	13	5	1	5	550.6798	29	1	800	361893.1340	 0.0009	 8.0823	 8.8993	 9.6161	10.1677	0
103	13	6	1	5	282.6084	56	1	800	361893.1340	 0.0009	10.1828	10.9997	11.7165	12.0000	0
103	13	7	1	5	304.8137	56	1	800	361893.1340	 0.0009	12.0172	12.8334	13.5502	13.8559	0
103	13	8	1	5	341.9250	29	1	800	361893.1340	 0.0009	13.8682	14.6836	15.4005	15.7435	0
103	13	9	1	5	369.9779	29	1	800	361893.1340	 0.0009	15.7672	16.5841	17.3010	17.6721	0
103	13	10	1	5	372.9313	29	1	800	361893.1340	 0.0009	17.6854	18.5012	19.2180	19.5918	0
103	13	11	1	5	311.3313	56	1	800	361893.1340	 0.0009	19.6057	20.4182	21.1350	21.4475	0
103	13	12	1	5	460.9378	29	1	800	361893.1340	 0.0009	21.4701	22.2853	23.0019	23.4638	0
103	14	1	1	5	346.6634	56	1	800	361936.1429	 0.0015	 0.0158	 0.8316	 1.5484	 1.8961	0
103	14	2	1	5	325.9748	56	1	800	361936.1429	 0.0015	 1.9158	 2.7319	 3.4488	 3.7757	0
103	14	3	1	5	314.9900	56	1	800	361936.1429	 0.0015	 3.8044	 4.6156	 5.3324	 5.6484	0
103	14	4	1	5	351.2528	56	1	800	361936.1429	 0.0015	 5.6657	 6.4826	 7.1994	 7.5517	0
103	14	5	1	5	339.5546	56	1	800	361936.1429	 0.0015	 7.5695	 8.3831	 9.0998	 9.4403	0
103	14	6	1	5	287.6218	56	1	800	361936.1429	 0.0015	 9.4541	10.2668	10.9835	11.2721	0
103	14	7	1	5	445.0318	29	1	800	361936.1429	 0.0015	11.2844	12.1004	12.8174	13.2635	0
103	14	8	1	5	437.7422	29	1	800	361936.1429	 0.0015	13.2838	14.1007	14.8175	15.2562	0
103	14	9	1	5	397.9737	56	1	800	361936.1429	 0.0015	15.2706	16.0846	16.8013	17.2002	0
103	14	10	1	5	271.0043	56	1	800	361936.1429	 0.0015	17.2181	18.0350	18.7516	19.0237	0
103	14	11	1	5	373.3401	29	1	800	361936.1429	 0.0015	19.0554	19.8685	20.5854	20.9598	0
103	14	12	1	5	463.9463	29	1	800	361936.1429	 0.0015	20.9889	21.8022	22.5191	22.9840	0
103	14	13	1	5	375.1466	29	1	800	361936.1429	 0.0015	23.0025	23.8192	24.5361	24.9121	0
103	14	14	1	5	392.7926	29	1	800	361936.1429	 0.0015	24.9390	25.7530	26.4697	26.8637	0
103	14	15	1	5	346.4308	29	1	800	361936.1429	 0.0015	26.8876	27.7033	28.4201	28.7676	0
103	14	16	1	5	382.6788	29	1	800	361936.1429	 0.0015	28.7867	29.6038	30.3205	30.7042	0
103	14	17	1	5	280.7807	56	1	800	361936.1429	 0.0015	30.7207	31.5375	32.2541	32.5358	0
103	14	18	1	5	335.2373	56	1	800	361936.1429	 0.0015	32.5542	33.3710	34.0880	34.4242	0
103	14	19	1	5	386.8099	29	1	800	361936.1429	 0.0015	34.4426	35.2547	35.9716	36.3595	0
103	14	20	1	5	301.6933	56	1	800	361936.1429	 0.0015	36.3720	37.1886	37.9052	38.2079	0
103	14	21	1	5	362.9195	29	1	800	361936.1429	 0.0015	38.2218	39.0387	39.7556	40.1196	0
103	14	22	1	5	302.8008	56	1	800	361936.1429	 0.0015	40.1393	40.9559	41.6727	41.9765	0
103	14	23	1	5	307.8732	56	1	800	361936.1429	 0.0015	41.9917	42.8062	43.5231	43.8320	0
103	14	24	1	5	280.6656	56	1	800	361936.1429	 0.0015	43.8603	44.6732	45.3901	45.6717	0
103	14	25	1	5	407.2560	29	1	800	361936.1429	 0.0015	45.6902	46.5069	47.2238	47.6320	0
103	14	26	1	5	416.4508	29	1	800	361936.1429	 0.0015	47.6604	48.4740	49.1907	49.6081	0
103	14	27	1	5	536.7144	29	1	800	361936.1429	 0.0015	49.6241	50.4411	51.1578	51.6956	0
103	14	28	1	5	285.8507	56	1	800	361936.1429	 0.0015	51.7077	52.5247	53.2414	53.5282	0
103	14	29	1	5	356.0561	29	1	800	361936.1429	 0.0015	53.5421	54.3584	55.0753	55.4323	0
103	14	30	1	5	382.7534	29	1	800	361936.1429	 0.0015	55.4630	56.2754	56.9923	57.3762	0
103	15	1	1	5	699.5066	1	0	800	362017.2114	 0.0015	 0.0166	 0.8328	 1.5492	 2.2495	0
103	15	2	1	5	699.8482	1	0	800	362017.2114	 0.0015	 0.0291	 0.8419	 1.5589	 2.2596	0
103	15	3	1	5	342.5299	29	1	800	362017.2114	 0.0015	 0.0265	 0.8432	 1.5600	 1.9036	0
103	15	4	1	5	394.8626	56	1	800	362017.2114	 0.0015	 1.9323	 2.7434	 3.4602	 3.8560	0
103	15	5	1	5	348.8168	29	1	800	362017.2114	 0.0015	 3.8811	 4.6939	 5.4106	 5.7604	0
103	15	6	1	5	336.1457	56	1	800	362017.2114	 0.0015	 5.7773	 6.5943	 7.3111	 7.6482	0
103	15	7	1	5	396.1628	29	1	800	362017.2114	 0.0015	 7.6617	 8.4778	 9.1947	 9.5918	0
103	15	8	1	5	349.5471	56	1	800	362017.2114	 0.0015	 9.6116	10.4283	11.1450	11.4957	0
103	15	9	1	5	337.3415	29	1	800	362017.2114	 0.0015	11.5126	12.3286	13.0454	13.3838	0
103	15	10	1	5	478.1015	56	1	800	362017.2114	 0.0015	13.3963	14.2123	14.9291	15.4081	0
103	15	11	1	5	323.6551	29	1	800	362017.2114	 0.0015	15.4329	16.2461	16.9628	17.2876	0
103	15	12	1	5	360.7738	29	1	800	362017.2114	 0.0015	17.3133	18.1297	18.8465	19.2082	0
103	15	1	2	5	491.7241	56	1	800	362017.2114	 0.0015	 0.0103	 0.8222	 1.5390	 2.0318	19.2103
103	15	2	2	5	313.3798	29	1	800	362017.2114	 0.0015	 2.0557	 2.8726	 3.5895	 3.9041	19.2103
103	15	3	2	5	286.0548	56	1	800	362017.2114	 0.0015	 3.9238	 4.7397	 5.4565	 5.7438	19.2103
103	15	4	2	5	372.7459	29	1	800	362017.2114	 0.0015	 5.7601	 6.5733	 7.2901	 7.6638	19.2103
103	15	5	2	5	375.9397	56	1	800	362017.2114	 0.0015	 7.6779	 8.4905	 9.2071	 9.5840	19.2103
103	15	6	2	5	498.1034	29	1	800	362017.2114	 0.0015	 9.6070	10.4241	11.1408	11.6399	19.2103
103	15	7	2	5	263.2841	56	1	800	362017.2114	 0.0015	11.6576	12.4745	13.1912	13.4556	19.2103
103	15	8	2	5	382.8275	29	1	800	362017.2114	 0.0015	13.4746	14.2914	15.0082	15.3920	19.2103
103	15	9	2	5	505.1284	29	1	800	362017.2114	 0.0015	15.4088	16.2252	16.9419	17.4481	19.2103
103	15	10	2	5	390.0648	56	1	800	362017.2114	 0.0015	17.4627	18.2756	18.9925	19.3836	19.2103
103	15	11	2	5	336.4552	29	1	800	362017.2114	 0.0015	19.4117	20.2259	20.9427	21.2801	19.2103
103	15	12	2	5	332.9859	56	1	800	362017.2114	 0.0015	21.2953	22.1096	22.8263	23.1603	19.2103
103	16	1	1	6	458.3923	56	0	800	362087.4219	 0.0015	 0.0161	 0.8323	 1.5490	 2.0083	0
103	16	2	1	6	382.5406	29	1	800	362087.4219	 0.0015	 0.0150	 0.8275	 1.5443	 1.9278	0
103	16	3	1	6	289.0067	56	1	800	362087.4219	 0.0015	 1.9445	 2.7612	 3.4781	 3.7681	0
103	16	4	1	6	350.9931	56	1	800	362087.4219	 0.0015	 3.7822	 4.5949	 5.3116	 5.6637	0
103	16	5	1	6	507.0551	29	1	800	362087.4219	 0.0015	 5.6792	 6.4953	 7.2120	 7.7200	0
103	16	6	1	6	304.1222	56	1	800	362087.4219	 0.0015	 7.7455	 8.5623	 9.2791	 9.5844	0
103	16	7	1	6	373.9436	56	1	800	362087.4219	 0.0015	 9.6006	10.4127	11.1295	11.5043	0
103	16	8	1	6	295.6257	56	1	800	362087.4219	 0.0015	11.5297	12.3463	13.0633	13.3599	0
103	16	9	1	6	349.1373	29	1	800	362087.4219	 0.0015	13.3797	14.1967	14.9135	15.2638	0
103	16	10	1	6	449.2171	29	1	800	362087.4219	 0.0015	15.2804	16.0970	16.8137	17.2639	0
103	16	11	1	6	329.1563	29	1	800	362087.4219	 0.0015	17.2808	18.0975	18.8142	19.1444	0
103	16	12	1	6	372.8544	29	1	800	362087.4219	 0.0015	19.1641	19.9811	20.6979	21.0719	0
103	16	13	1	6	343.9071	29	1	800	362087.4219	 0.0015	21.0883	21.8982	22.6149	22.9598	0
103	16	14	1	6	291.6046	56	1	800	362087.4219	 0.0015	22.9854	23.7986	24.5153	24.8079	0
103	16	15	1	6	273.4995	56	1	800	362087.4219	 0.0015	24.8319	25.6489	26.3656	26.6401	0
103	16	16	1	6	279.5050	56	1	800	362087.4219	 0.0015	26.6656	27.4827	28.1994	28.4800	0
103	16	17	1	6	301.3824	56	1	800	362087.4219	 0.0015	28.4998	29.3162	30.0332	30.3356	0
103	16	18	1	6	267.8769	56	1	800	362087.4219	 0.0015	30.3497	31.1666	31.8834	32.1522	0
103	16	19	1	6	450.8604	29	1	800	362087.4219	 0.0015	32.1705	32.9836	33.7004	34.1523	0
103	16	20	1	6	322.7002	29	1	800	362087.4219	 0.0015	34.1672	34.9839	35.7007	36.0244	0
103	16	21	1	6	383.2937	56	1	800	362087.4219	 0.0015	36.0381	36.8510	37.5679	37.9521	0
103	16	22	1	6	289.8607	56	1	800	362087.4219	 0.0015	37.9686	38.7847	39.5015	39.7923	0
103	16	23	1	6	335.7701	29	1	800	362087.4219	 0.0015	39.8063	40.6184	41.3352	41.6718	0
103	16	24	1	6	284.0103	56	1	800	362087.4219	 0.0015	41.6859	42.5022	43.2189	43.5039	0
103	16	25	1	6	546.2544	29	1	800	362087.4219	 0.0015	43.5191	44.3357	45.0525	45.6001	0
103	16	26	1	6	430.4196	29	1	800	362087.4219	 0.0015	45.6193	46.4362	47.1531	47.5844	0
103	16	27	1	6	285.8448	56	1	800	362087.4219	 0.0015	47.6030	48.4199	49.1367	49.4238	0
103	16	28	1	6	316.8975	56	1	800	362087.4219	 0.0015	49.4382	50.2536	50.9703	51.2881	0
103	16	29	1	6	409.2908	29	1	800	362087.4219	 0.0015	51.3044	52.1206	52.8375	53.2478	0
103	16	30	1	6	474.6152	29	1	800	362087.4219	 0.0015	53.2764	54.0876	54.8044	55.2799	0
103	17	1	1	6	357.5027	56	1	800	362166.6735	 0.0014	 0.0125	 0.8285	 1.5453	 1.9037	0
103	17	2	1	6	312.4703	56	1	800	362166.6735	 0.0014	 1.9317	 2.7456	 3.4624	 3.7757	0
103	17	3	1	6	285.1485	56	1	800	362166.6735	 0.0014	 3.8008	 4.6126	 5.3295	 5.6156	0
103	17	4	1	6	259.8803	56	1	800	362166.6735	 0.0014	 5.6318	 6.4462	 7.1631	 7.4241	0
103	17	5	1	6	298.7684	56	1	800	362166.6735	 0.0014	 7.4521	 8.2632	 8.9800	 9.2797	0
103	17	6	1	6	392.3066	56	1	800	362166.6735	 0.0014	 9.2967	10.1136	10.8305	11.2238	0
103	17	7	1	6	441.5772	29	1	800	362166.6735	 0.0014	11.2518	12.0641	12.7808	13.2234	0
103	17	8	1	6	369.7240	29	1	800	362166.6735	 0.0014	13.2496	14.0643	14.7811	15.1517	0
103	17	9	1	6	380.5836	29	1	800	362166.6735	 0.0014	15.1685	15.9814	16.6983	17.0798	0
103	17	10	1	6	294.6464	56	1	800	362166.6735	 0.0014	17.0982	17.9153	18.6319	18.9274	0
103	17	11	1	6	348.0534	29	1	800	362166.6735	 0.0014	18.9520	19.7656	20.4822	20.8313	0
103	17	12	1	6	304.6711	29	1	800	362166.6735	 0.0014	20.8488	21.6658	22.3827	22.6883	0
103	18	1	1	6	458.9691	29	1	800	362230.8995	 0.0007	 0.0217	 0.8386	 1.5554	 2.0156	0
103	18	2	1	6	402.2482	29	1	800	362230.8995	 0.0007	 2.0424	 2.8558	 3.5725	 3.9758	0
103	18	3	1	6	387.7809	29	1	800	362230.8995	 0.0007	 3.9911	 4.8061	 5.5228	 5.9116	0
103	18	4	1	6	398.5382	29	1	800	362230.8995	 0.0007	 5.9250	 6.7397	 7.4567	 7.8561	0
103	18	5	1	6	359.5690	29	1	800	362230.8995	 0.0007	 7.8732	 8.6902	 9.4069	 9.7676	0
103	18	6	1	6	355.0965	29	1	800	362230.8995	 0.0007	 9.7904	10.6071	11.3240	11.6800	0
103	18	7	1	6	382.2760	29	1	800	362230.8995	 0.0007	11.6932	12.5076	13.2243	13.6077	0
103	18	8	1	6	328.5165	56	1	800	362230.8995	 0.0007	13.6245	14.4412	15.1580	15.4877	0
103	18	9	1	6	309.4295	56	1	800	362230.8995	 0.0007	15.5080	16.3248	17.0417	17.3521	0
103	18	10	1	6	322.0710	56	1	800	362230.8995	 0.0007	17.3751	18.1918	18.9087	19.2317	0
103	18	11	1	6	478.8802	29	1	800	362230.8995	 0.0007	19.2587	20.0756	20.7925	21.2723	0
103	18	12	1	6	300.3498	56	1	800	362230.8995	 0.0007	21.2925	22.1094	22.8261	23.1277	0
103	18	13	1	6	426.5504	56	0	800	362230.8995	 0.0007	23.1432	23.9596	24.6766	25.1041	0
103	18	14	1	6	379.4525	56	1	800	362230.8995	 0.0007	 0.0216	 0.8383	 1.5551	 1.9359	0
103	18	15	1	6	438.2911	29	1	800	362230.8995	 0.0007	 1.9558	 2.7720	 3.4889	 3.9283	0
103	18	16	1	6	309.3801	56	1	800	362230.8995	 0.0007	 3.9556	 4.7724	 5.4893	 5.7997	0
103	18	17	1	6	306.8431	56	1	800	362230.8995	 0.0007	 5.8226	 6.6395	 7.3563	 7.6645	0
103	18	18	1	6	328.8916	56	1	800	362230.8995	 0.0007	 7.6785	 8.4899	 9.2066	 9.5364	0
103	18	19	1	6	301.1139	56	1	800	362230.8995	 0.0007	 9.5566	10.3734	11.0903	11.3923	0
103	18	20	1	6	282.6245	56	1	800	362230.8995	 0.0007	11.4115	12.2240	12.9405	13.2241	0
103	18	21	1	6	304.9041	56	1	800	362230.8995	 0.0007	13.2406	14.0574	14.7743	15.0801	0
103	18	22	1	6	262.0006	56	1	800	362230.8995	 0.0007	15.0934	15.9080	16.6247	16.8877	0
103	18	23	1	6	268.9794	56	1	800	362230.8995	 0.0007	16.9247	17.7415	18.4584	18.7283	0
103	18	24	1	6	372.1088	29	1	800	362230.8995	 0.0007	18.7454	19.5586	20.2754	20.6484	0
103	18	25	1	6	278.0578	56	1	800	362230.8995	 0.0007	20.6754	21.4923	22.2091	22.4882	0
103	18	26	1	6	300.0415	56	1	800	362230.8995	 0.0007	22.5091	23.3259	24.0428	24.3438	0
103	18	27	1	6	305.8777	56	1	800	362230.8995	 0.0007	24.3592	25.1763	25.8931	26.2000	0
103	18	28	1	6	278.5418	56	1	800	362230.8995	 0.0007	26.2266	27.0433	27.7601	28.0399	0
103	18	29	1	6	301.5797	56	1	800	362230.8995	 0.0007	28.0602	28.8770	29.5938	29.8964	0
103	18	30	1	6	250.7681	56	1	800	362230.8995	 0.0007	29.9122	30.7273	31.4443	31.6961	0
103	19	1	1	7	503.0442	56	1	800	362313.0498	 0.0007	 0.0139	 0.8272	 1.5439	 2.0478	0
103	19	2	1	7	260.6301	56	1	800	362313.0498	 0.0007	 2.0654	 2.8775	 3.5945	 3.8561	0
103	19	3	1	7	387.0054	29	1	800	362313.0498	 0.0007	 3.8777	 4.6945	 5.4113	 5.7994	0
103	19	4	1	7	437.8449	29	1	800	362313.0498	 0.0007	 5.8158	 6.6283	 7.3450	 7.7838	0
103	19	5	1	7	325.5480	29	1	800	362313.0498	 0.0007	 7.7964	 8.6120	 9.3289	 9.6558	0
103	19	6	1	7	322.1164	29	1	800	362313.0498	 0.0007	 9.6788	10.4956	11.2125	11.5356	0
103	19	7	1	7	351.0788	56	1	800	362313.0498	 0.0007	11.5624	12.3793	13.0962	13.4482	0
103	19	8	1	7	265.8996	56	1	800	362313.0498	 0.0007	13.4632	14.2796	14.9965	15.2637	0
103	19	9	1	7	272.7178	56	1	800	362313.0498	 0.0007	15.2797	16.0968	16.8136	17.0876	0
103	19	10	1	7	296.1426	56	1	800	362313.0498	 0.0007	17.1135	17.9304	18.6471	18.9441	0
103	19	11	1	7	340.8245	29	1	800	362313.0498	 0.0007	18.9639	19.7807	20.4975	20.8395	0
103	19	12	1	7	296.8557	56	1	800	362313.0498	 0.0007	20.8642	21.6810	22.3979	22.6958	0
103	20	1	1	7	699.2680	1	0	800	362347.8222	 0.0008	 0.0151	 0.8319	 1.5486	 2.2488	0
103	20	2	1	7	362.2878	56	1	800	362347.8222	 0.0008	 0.0240	 0.8407	 1.5576	 1.9208	0
103	20	3	1	7	372.9371	29	1	800	362347.8222	 0.0008	 1.9410	 2.7578	 3.4745	 3.8484	0
103	20	4	1	7	311.9860	56	1	800	362347.8222	 0.0008	 3.8627	 4.6749	 5.3916	 5.7045	0
103	20	5	1	7	364.9473	56	1	800	362347.8222	 0.0008	 5.7250	 6.5418	 7.2585	 7.6245	0
103	20	6	1	7	383.9879	29	1	800	362347.8222	 0.0008	 7.6444	 8.4589	 9.1756	 9.5605	0
103	20	7	1	7	546.2955	29	1	800	362347.8222	 0.0008	 9.5755	10.3927	11.1093	11.6565	0
103	20	8	1	7	357.8133	29	1	800	362347.8222	 0.0008	11.6762	12.4929	13.2097	13.5685	0
103	20	9	1	7	352.1475	29	1	800	362347.8222	 0.0008	13.5931	14.4100	15.1268	15.4802	0
103	20	10	1	7	260.2638	56	1	800	362347.8222	 0.0008	15.4981	16.3103	17.0272	17.2884	0
103	20	11	1	7	267.2387	56	1	800	362347.8222	 0.0008	17.3105	18.1274	18.8442	19.1123	0
103	20	12	1	7	337.9022	56	1	800	362347.8222	 0.0008	19.1275	19.9444	20.6611	21.0001	0
103	20	13	1	7	454.0594	56	0	800	362347.8222	 0.0008	21.0280	21.8448	22.5616	23.0166	0
103	20	14	1	7	346.1387	56	1	800	362347.8222	 0.0008	 0.0169	 0.8325	 1.5493	 1.8963	0
103	20	15	1	7	373.1116	29	1	800	362347.8222	 0.0008	 1.9161	 2.7329	 3.4496	 3.8239	0
103	20	16	1	7	271.9432	56	1	800	362347.8222	 0.0008	 3.8497	 4.6665	 5.3834	 5.6563	0
103	20	17	1	7	270.5381	56	1	800	362347.8222	 0.0008	 5.6695	 6.4833	 7.2003	 7.4719	0
103	20	18	1	7	278.1034	56	1	800	362347.8222	 0.0008	 7.4844	 8.3005	 9.0174	 9.2964	0
103	20	19	1	7	363.9300	56	1	800	362347.8222	 0.0008	 9.3174	10.1342	10.8511	11.2160	0
103	20	20	1	7	390.9924	29	1	800	362347.8222	 0.0008	11.2364	12.0513	12.7682	13.1601	0
103	20	21	1	7	329.0634	56	1	800	362347.8222	 0.0008	13.1848	14.0017	14.7185	15.0485	0
103	20	22	1	7	396.5060	29	1	800	362347.8222	 0.0008	15.0687	15.8853	16.6022	16.9998	0
103	20	23	1	7	254.7766	56	1	800	362347.8222	 0.0008	17.0211	17.8357	18.5525	18.8089	0
103	20	24	1	7	278.3162	56	1	800	362347.8222	 0.0008	18.8232	19.6361	20.3529	20.6322	0
103	20	25	1	7	315.8995	56	1	800	362347.8222	 0.0008	20.6528	21.4697	22.1867	22.5038	0
103	20	26	1	7	249.0080	56	1	800	362347.8222	 0.0008	22.5202	23.3368	24.0537	24.3038	0
103	20	27	1	7	241.3600	56	1	800	362347.8222	 0.0008	24.3208	25.1371	25.8539	26.0962	0
103	20	28	1	7	699.9271	1	0	800	362347.8222	 0.0008	26.1231	26.9374	27.6544	28.3551	0
103	20	29	1	7	349.8355	56	1	800	362347.8222	 0.0008	 0.0211	 0.8372	 1.5538	 1.9045	0
103	20	30	1	7	368.1999	29	1	800	362347.8222	 0.0008	 1.9209	 2.7375	 3.4543	 3.8236	0
103	21	1	1	7	276.2716	56	1	800	362424.6177	 0.0007	 0.0105	 0.8222	 1.5390	 1.8162	0
103	21	2	1	7	426.0327	56	1	800	362424.6177	 0.0007	 1.8426	 2.6557	 3.3726	 3.7997	0
103	21	3	1	7	442.8443	29	1	800	362424.6177	 0.0007	 3.8239	 4.6394	 5.3563	 5.8001	0
103	21	4	1	7	338.2966	56	1	800	362424.6177	 0.0007	 5.8231	 6.6398	 7.3567	 7.6960	0
103	21	5	1	7	350.7471	56	1	800	362424.6177	 0.0007	 7.7113	 8.5235	 9.2402	 9.5920	0
103	21	6	1	7	346.0473	56	1	800	362424.6177	 0.0007	 9.6095	10.4240	11.1406	11.4878	0
103	21	7	1	7	277.5448	56	1	800	362424.6177	 0.0007	11.5077	12.3243	13.0411	13.3198	0
103	21	8	1	7	348.9743	29	1	800	362424.6177	 0.0007	13.3454	14.1579	14.8747	15.2246	0
103	21	9	1	7	319.8908	29	1	800	362424.6177	 0.0007	15.2413	16.0583	16.7751	17.0959	0
103	21	10	1	7	284.8530	56	1	800	362424.6177	 0.0007	17.1082	17.9254	18.6421	18.9279	0
103	21	11	1	7	315.2228	29	1	800	362424.6177	 0.0007	18.9420	19.7592	20.4759	20.7921	0
103	21	12	1	7	391.9897	29	1	800	362424.6177	 0.0007	20.8098	21.6261	22.3429	22.7359	0
103	22	1	1	8	290.0584	56	1	800	362477.0985	 0.0010	 0.0096	 0.8238	 1.5407	 1.8318	0
103	22	2	1	8	304.0284	56	1	800	362477.0985	 0.0010	 1.8572	 2.6742	 3.3910	 3.6959	0
103	22	3	1	8	245.1835	56	1	800	362477.0985	 0.0010	 3.7123	 4.5246	 5.2413	 5.4876	0
103	22	4	1	8	309.0328	56	1	800	362477.0985	 0.0010	 5.5133	 6.3249	 7.0417	 7.3517	0
103	22	5	1	8	305.6728	29	1	800	362477.0985	 0.0010	 7.3789	 8.1919	 8.9088	 9.2155	0
103	22	6	1	8	335.4897	56	1	800	362477.0985	 0.0010	 9.2320	10.0423	10.7591	11.0956	0
103	22	7	1	8	364.0745	56	1	800	362477.0985	 0.0010	11.1116	11.9261	12.6428	13.0078	0
103	22	8	1	8	254.5734	56	1	800	362477.0985	 0.0010	13.0268	13.8430	14.5598	14.8155	0
103	22	9	1	8	246.3461	56	1	800	362477.0985	 0.0010	14.8298	15.6433	16.3602	16.6077	0
103	22	10	1	8	254.6667	56	1	800	362477.0985	 0.0010	16.6276	17.4438	18.1605	18.4161	0
103	22	11	1	8	237.5757	56	1	800	362477.0985	 0.0010	18.4317	19.2439	19.9608	20.1995	0
103	22	12	1	8	373.8792	29	1	800	362477.0985	 0.0010	20.2130	21.0277	21.7445	22.1194	0
103	22	13	1	8	256.5364	56	1	800	362477.0985	 0.0010	22.1467	22.9614	23.6782	23.9358	0
103	22	14	1	8	367.6332	29	1	800	362477.0985	 0.0010	23.9670	24.7784	25.4952	25.8637	0
103	22	15	1	8	242.2393	29	0	800	362477.0985	 0.0010	25.8803	26.6956	27.4123	27.6555	0
103	22	16	1	8	456.0653	29	1	800	362477.0985	 0.0010	 0.0183	 0.8346	 1.5513	 2.0084	0
103	22	17	1	8	302.6633	56	1	800	362477.0985	 0.0010	 2.0223	 2.8350	 3.5518	 3.8555	0
103	22	18	1	8	372.2568	29	1	800	362477.0985	 0.0010	 3.8702	 4.6854	 5.4021	 5.7754	0
103	22	19	1	8	335.3935	29	1	800	362477.0985	 0.0010	 5.8073	 6.6191	 7.3358	 7.6721	0
103	22	20	1	8	355.7753	29	1	800	362477.0985	 0.0010	 7.6900	 8.5026	 9.2195	 9.5762	0
103	22	21	1	8	359.0830	56	1	800	362477.0985	 0.0010	 9.5899	10.4031	11.1199	11.4799	0
103	22	22	1	8	273.8987	56	1	800	362477.0985	 0.0010	11.5079	12.3201	13.0369	13.3117	0
103	22	23	1	8	264.5442	56	1	800	362477.0985	 0.0010	13.3416	14.1538	14.8707	15.1362	0
103	22	24	1	8	303.2415	56	1	800	362477.0985	 0.0010	15.1539	15.9708	16.6877	16.9919	0
103	22	25	1	8	373.0579	56	1	800	362477.0985	 0.0010	17.0064	17.8213	18.5379	18.9119	0
103	22	26	1	8	263.9721	56	1	800	362477.0985	 0.0010	18.9259	19.7382	20.4550	20.7199	0
103	22	27	1	8	302.3314	56	1	800	362477.0985	 0.0010	20.7384	21.5552	22.2720	22.5756	0
103	22	28	1	8	364.0473	29	1	800	362477.0985	 0.0010	22.5901	23.4056	24.1224	24.4876	0
103	22	29	1	8	375.8259	29	1	800	362477.0985	 0.0010	24.5059	25.3226	26.0394	26.4161	0
103	22	30	1	8	370.2558	29	1	800	362477.0985	 0.0010	26.4392	27.2563	27.9731	28.3442	0
103	23	1	1	8	397.0804	29	1	800	362557.0429	 0.0007	 0.0247	 0.8374	 1.5542	 1.9522	0
103	23	2	1	8	374.5773	29	1	800	362557.0429	 0.0007	 1.9708	 2.7878	 3.5046	 3.8802	0
103	23	3	1	8	699.6170	1	0	800	362557.0429	 0.0007	 3.9098	 4.7214	 5.4383	 6.1387	0
103	23	4	1	8	392.9062	29	1	800	362557.0429	 0.0007	 0.0167	 0.8334	 1.5503	 1.9441	0
103	23	5	1	8	322.4497	56	1	800	362557.0429	 0.0007	 1.9680	 2.7838	 3.5007	 3.8242	0
103	23	6	1	8	431.0932	29	1	800	362557.0429	 0.0007	 3.8435	 4.6509	 5.3677	 5.7998	0
103	23	7	1	8	352.0932	29	1	800	362557.0429	 0.0007	 5.8177	 6.6346	 7.3513	 7.7043	0
103	23	8	1	8	283.0873	56	1	800	362557.0429	 0.0007	 7.7181	 8.5349	 9.2518	 9.5358	0
103	23	9	1	8	329.8776	29	1	800	362557.0429	 0.0007	 9.5523	10.3686	11.0854	11.4162	0
103	23	10	1	8	357.8631	56	1	800	362557.0429	 0.0007	11.4393	12.2524	12.9691	13.3285	0
103	23	11	1	8	264.7055	56	1	800	362557.0429	 0.0007	13.3568	14.1693	14.8861	15.1522	0
103	23	12	1	8	328.4311	29	1	800	362557.0429	 0.0007	15.1702	15.9864	16.7031	17.0324	0
103	23	1	2	8	346.6207	56	1	800	362557.0429	 0.0007	 0.0094	 0.8241	 1.5408	 1.8884	17.0346
103	23	2	2	8	301.6910	29	1	800	362557.0429	 0.0007	 1.9080	 2.7244	 3.4413	 3.7440	17.0346
103	23	3	2	8	363.5054	29	1	800	362557.0429	 0.0007	 3.7581	 4.5747	 5.2915	 5.6560	17.0346
103	23	4	2	8	318.4673	56	1	800	362557.0429	 0.0007	 5.6757	 6.4917	 7.2085	 7.5279	17.0346
103	23	5	2	8	331.4902	29	1	800	362557.0429	 0.0007	 7.5436	 8.3587	 9.0755	 9.4080	17.0346
103	23	6	2	8	351.4818	56	1	800	362557.0429	 0.0007	 9.4257	10.2425	10.9593	11.3117	17.0346
103	23	7	2	8	403.4555	29	1	800	362557.0429	 0.0007	11.3303	12.1430	12.8596	13.2640	17.0346
103	23	8	2	8	300.9455	56	1	800	362557.0429	 0.0007	13.2782	14.0933	14.8100	15.1119	17.0346
103	23	9	2	8	330.6345	56	1	800	362557.0429	 0.0007	15.1271	15.9435	16.6603	16.9919	17.0346
103	23	10	2	8	311.4412	56	1	800	362557.0429	 0.0007	17.0104	17.8272	18.5440	18.8564	17.0346
103	23	11	2	8	355.5887	29	1	800	362557.0429	 0.0007	18.8812	19.6943	20.4110	20.7677	17.0346
103	23	12	2	8	270.6319	56	1	800	362557.0429	 0.0007	20.7983	21.6113	22.3281	22.5997	17.0346
103	24	1	1	8	364.1952	56	0	800	362633.1451	 0.0008	 0.0138	 0.8290	 1.5458	 1.9111	0
103	24	2	1	8	332.3946	56	1	800	362633.1451	 0.0008	 0.0126	 0.8296	 1.5463	 1.8800	0
103	24	3	1	8	304.9268	56	1	800	362633.1451	 0.0008	 1.8970	 2.7133	 3.4300	 3.7359	0
103	24	4	1	8	366.1461	29	1	800	362633.1451	 0.0008	 3.7494	 4.5636	 5.2804	 5.6477	0
103	24	5	1	8	353.6641	29	1	800	362633.1451	 0.0008	 5.6643	 6.4808	 7.1974	 7.5520	0
103	24	6	1	8	461.3721	56	1	800	362633.1451	 0.0008	 7.5663	 8.3811	 9.0978	 9.5601	0
103	24	7	1	8	348.1630	56	1	800	362633.1451	 0.0008	 9.5849	10.3982	11.1150	11.4642	0
103	24	8	1	8	343.8873	29	1	800	362633.1451	 0.0008	11.4814	12.2984	13.0152	13.3601	0
103	24	9	1	8	323.2203	56	1	800	362633.1451	 0.0008	13.3847	14.1987	14.9156	15.2397	0
103	24	10	1	8	287.1417	56	1	800	362633.1451	 0.0008	15.2654	16.0825	16.7999	17.0880	0
103	24	11	1	8	309.6254	56	1	800	362633.1451	 0.0008	17.1180	17.9329	18.6496	18.9604	0
103	24	12	1	8	354.1449	56	1	800	362633.1451	 0.0008	18.9832	19.7999	20.5166	20.8719	0
103	24	13	1	8	478.3177	29	1	800	362633.1451	 0.0008	20.8888	21.7002	22.4171	22.8964	0
103	24	14	1	8	283.7829	56	1	800	362633.1451	 0.0008	22.9210	23.7340	24.4507	24.7356	0
103	24	15	1	8	355.0896	29	1	800	362633.1451	 0.0008	24.7521	25.5677	26.2844	26.6404	0
103	24	16	1	8	358.5810	29	1	800	362633.1451	 0.0008	26.6535	27.4679	28.1848	28.5443	0
103	24	17	1	8	328.6450	56	1	800	362633.1451	 0.0008	28.5720	29.3850	30.1018	30.4316	0
103	24	18	1	8	301.9665	56	1	800	362633.1451	 0.0008	30.4551	31.2687	31.9854	32.2883	0
103	24	19	1	8	307.4704	56	1	800	362633.1451	 0.0008	32.3031	33.1191	33.8358	34.1442	0
103	24	20	1	8	360.4509	29	1	800	362633.1451	 0.0008	34.1724	34.9861	35.7028	36.0642	0
103	24	21	1	8	371.4851	56	1	800	362633.1451	 0.0008	36.0873	36.9032	37.6199	37.9923	0
103	24	22	1	8	270.2630	56	1	800	362633.1451	 0.0008	38.0072	38.8201	39.5369	39.8081	0
103	24	23	1	8	404.8388	29	1	800	362633.1451	 0.0008	39.8225	40.6371	41.3541	41.7600	0
103	24	24	1	8	430.3706	56	0	800	362633.1451	 0.0008	41.7741	42.5875	43.3044	43.7361	0
103	24	25	1	8	411.0445	29	1	800	362633.1451	 0.0008	 0.0251	 0.8389	 1.5557	 1.9679	0
103	24	26	1	8	587.9776	56	1	800	362633.1451	 0.0008	 1.9932	 2.8060	 3.5228	 4.1119	0
103	24	27	1	8	398.4592	29	1	800	362633.1451	 0.0008	 4.1433	 4.9564	 5.6732	 6.0725	0
103	24	28	1	8	311.8779	56	1	800	362633.1451	 0.0008	 6.0901	 6.9067	 7.6237	 7.9365	0
103	24	29	1	8	555.9537	56	0	800	362633.1451	 0.0008	 7.9612	 8.7738	 9.4907	10.0479	0
103	24	30	1	8	427.7213	29	1	800	362633.1451	 0.0008	 0.0253	 0.8387	 1.5555	 1.9844	0
103	25	1	1	9	325.3041	56	1	800	362712.4458	 0.0015	 0.0177	 0.8290	 1.5457	 1.8722	0
103	25	2	1	9	410.3838	29	1	800	362712.4458	 0.0015	 1.8958	 2.7125	 3.4294	 3.8407	0
103	25	3	1	9	347.0982	56	1	800	362712.4458	 0.0015	 3.8643	 4.6795	 5.3964	 5.7445	0
103	25	4	1	9	358.4713	29	1	800	362712.4458	 0.0015	 5.7633	 6.5800	 7.2968	 7.6562	0
103	25	5	1	9	297.1271	56	1	800	362712.4458	 0.0015	 7.6847	 8.4969	 9.2139	 9.5121	0
103	25	6	1	9	367.3048	29	1	800	362712.4458	 0.0015	 9.5305	10.3473	11.0641	11.4323	0
103	25	7	1	9	377.6549	29	1	800	362712.4458	 0.0015	11.4491	12.2644	12.9813	13.3600	0
103	25	8	1	9	332.8184	29	1	800	362712.4458	 0.0015	13.3855	14.1980	14.9148	15.2487	0
103	25	9	1	9	337.0822	29	1	800	362712.4458	 0.0015	15.2652	16.0818	16.7986	17.1366	0
103	25	10	1	9	285.5377	56	1	800	362712.4458	 0.0015	17.1527	17.9655	18.6823	18.9687	0
103	25	11	1	9	427.4061	29	1	800	362712.4458	 0.0015	18.9824	19.7991	20.5159	20.9447	0
103	25	12	1	9	363.2880	56	1	800	362712.4458	 0.0015	20.9700	21.7829	22.4997	22.8641	0
103	26	1	1	9	341.0405	29	1	800	362742.8668	 0.0007	 0.0161	 0.8286	 1.5454	 1.8874	0
103	26	2	1	9	385.4409	29	1	800	362742.8668	 0.0007	 1.9158	 2.7289	 3.4456	 3.8320	0
103	26	3	1	9	331.0662	29	1	800	362742.8668	 0.0007	 3.8493	 4.6626	 5.3795	 5.7116	0
103	26	4	1	9	343.6837	29	1	800	362742.8668	 0.0007	 5.7303	 6.5464	 7.2630	 7.6077	0
103	26	5	1	9	323.4811	56	1	800	362742.8668	 0.0007	 7.6321	 8.4466	 9.1634	 9.4878	0
103	26	6	1	9	303.9938	56	1	800	362742.8668	 0.0007	 9.5183	10.3304	11.0471	11.3520	0
103	26	7	1	9	285.5392	56	1	800	362742.8668	 0.0007	11.3673	12.1807	12.8975	13.1839	0
103	26	8	1	9	331.3751	29	1	800	362742.8668	 0.0007	13.1978	14.0143	14.7312	15.0636	0
103	26	9	1	9	311.6931	56	1	800	362742.8668	 0.0007	15.0812	15.8980	16.6149	16.9276	0
103	26	10	1	9	308.5950	29	1	800	362742.8668	 0.0007	16.9530	17.7651	18.4820	18.7915	0
103	26	11	1	9	274.0563	56	1	800	362742.8668	 0.0007	18.8206	19.6321	20.3489	20.6240	0
103	26	12	1	9	328.6484	56	1	800	362742.8668	 0.0007	20.6490	21.4658	22.1825	22.5122	0
103	26	13	1	9	252.6627	56	1	800	362742.8668	 0.0007	22.5327	23.3495	24.0663	24.3204	0
103	26	14	1	9	315.3735	56	1	800	362742.8668	 0.0007	24.3510	25.1665	25.8833	26.1996	0
103	26	15	1	9	368.4243	29	1	800	362742.8668	 0.0007	26.2170	27.0336	27.7503	28.1197	0
103	26	16	1	9	267.3844	56	1	800	362742.8668	 0.0007	28.1339	28.9507	29.6674	29.9358	0
103	26	17	1	9	322.5296	29	1	800	362742.8668	 0.0007	29.9552	30.7676	31.4844	31.8079	0
103	26	18	1	9	278.5593	56	1	800	362742.8668	 0.0007	31.8218	32.6345	33.3516	33.6313	0
103	26	19	1	9	309.2476	56	1	800	362742.8668	 0.0007	33.6514	34.4682	35.1851	35.4953	0
103	26	20	1	9	298.9358	56	1	800	362742.8668	 0.0007	35.5187	36.3352	37.0520	37.3519	0
103	26	21	1	9	272.5380	56	1	800	362742.8668	 0.0007	37.3690	38.1857	38.9024	39.1759	0
103	26	22	1	9	286.9839	56	1	800	362742.8668	 0.0007	39.2067	40.0193	40.7362	41.0241	0
103	26	23	1	9	348.9538	29	1	800	362742.8668	 0.0007	41.0384	41.8529	42.5699	42.9197	0
103	26	24	1	9	240.6128	56	1	800	362742.8668	 0.0007	42.9368	43.7534	44.4701	44.7117	0
103	26	25	1	9	320.2520	29	1	800	362742.8668	 0.0007	44.7402	45.5538	46.2705	46.5917	0
103	26	26	1	9	341.0714	29	1	800	362742.8668	 0.0007	46.6065	47.4208	48.1376	48.4797	0
103	26	27	1	9	408.8570	56	0	800	362742.8668	 0.0007	48.5050	49.3211	50.0379	50.4477	0
103	26	28	1	9	373.7458	56	1	800	362742.8668	 0.0007	 0.0200	 0.8365	 1.5533	 1.9279	0
103	26	29	1	9	519.7083	29	1	800	362742.8668	 0.0007	 1.9583	 2.7702	 3.4869	 4.0077	0
103	26	30	1	9	381.0291	29	1	800	362742.8668	 0.0007	 4.0241	 4.8373	 5.5540	 5.9360	0
103	27	1	1	9	335.6640	56	1	800	362806.8247	 0.0007	 0.0137	 0.8264	 1.5431	 1.8798	0
103	27	2	1	9	284.3140	56	1	800	362806.8247	 0.0007	 1.8939	 2.7102	 3.4269	 3.7122	0
103	27	3	1	9	434.1723	29	1	800	362806.8247	 0.0007	 3.7272	 4.5437	 5.2606	 5.6957	0
103	27	4	1	9	410.3544	56	1	800	362806.8247	 0.0007	 5.7132	 6.5274	 7.2443	 7.6557	0
103	27	5	1	9	627.3592	56	1	800	362806.8247	 0.0007	 7.6817	 8.4945	 9.2113	 9.8397	0
103	27	6	1	9	331.3699	56	1	800	362806.8247	 0.0007	 9.8649	10.6783	11.3951	11.7275	0
103	27	7	1	9	384.6487	29	1	800	362806.8247	 0.0007	11.7452	12.5619	13.2787	13.6642	0
103	27	8	1	9	346.8556	56	1	800	362806.8247	 0.0007	13.6791	14.4957	15.2124	15.5602	0
103	27	9	1	9	686.5477	29	0	800	362806.8247	 0.0007	15.5798	16.3961	17.1128	17.8003	0
103	27	10	1	9	275.0398	56	1	800	362806.8247	 0.0007	 0.0245	 0.8389	 1.5557	 1.8317	0
103	27	11	1	9	489.6244	56	1	800	362806.8247	 0.0007	 1.8559	 2.6726	 3.3895	 3.8800	0
103	27	12	1	9	367.1345	29	1	800	362806.8247	 0.0007	 3.8957	 4.7064	 5.4232	 5.7914	0
103	27	1	2	9	318.3835	56	1	800	362806.8247	 0.0007	 0.0143	 0.8281	 1.5450	 1.8643	 5.7935
103	27	2	2	9	266.7023	56	1	800	362806.8247	 0.0007	 1.8782	 2.6952	 3.4119	 3.6797	 5.7935
103	27	3	2	9	346.2596	29	1	800	362806.8247	 0.0007	 3.6962	 4.5122	 5.2291	 5.5763	 5.7935
103	27	4	2	9	254.0394	56	1	800	362806.8247	 0.0007	 5.5956	 6.4125	 7.1294	 7.3843	 5.7935
103	27	5	2	9	252.9116	56	1	800	362806.8247	 0.0007	 7.3999	 8.2129	 8.9298	 9.1838	 5.7935
103	27	6	2	9	284.7677	56	1	800	362806.8247	 0.0007	 9.2004	10.0132	10.7300	11.0158	 5.7935
103	27	7	2	9	410.9689	29	1	800	362806.8247	 0.0007	11.0302	11.8469	12.5637	12.9757	 5.7935
103	27	8	2	9	300.2728	56	1	800	362806.8247	 0.0007	13.0013	13.8139	14.5309	14.8321	 5.7935
103	27	9	2	9	402.2225	56	1	800	362806.8247	 0.0007	14.8483	15.6642	16.3811	16.7843	 5.7935
103	27	10	2	9	331.2964	56	1	800	362806.8247	 0.0007	16.7982	17.6146	18.3314	18.6638	 5.7935
103	27	11	2	9	296.1650	56	1	800	362806.8247	 0.0007	18.6814	19.4983	20.2152	20.5122	 5.7935
103	27	12	2	9	373.4341	29	1	800	362806.8247	 0.0007	20.5316	21.3488	22.0655	22.4399	 5.7935
103	28	1	1	10	342.7954	56	1	800	362878.6751	 0.0007	 0.0163	 0.8276	 1.5443	 1.8880	0
103	28	2	1	10	338.0091	56	1	800	362878.6751	 0.0007	 1.9110	 2.7278	 3.4448	 3.7838	0
103	28	3	1	10	326.0504	56	1	800	362878.6751	 0.0007	 3.8142	 4.6283	 5.3450	 5.6720	0
103	28	4	1	10	282.5308	56	1	800	362878.6751	 0.0007	 5.6951	 6.5120	 7.2287	 7.5122	0
103	28	5	1	10	280.6211	56	1	800	362878.6751	 0.0007	 7.5287	 8.3456	 9.0624	 9.3439	0
103	28	6	1	10	390.6799	29	1	800	362878.6751	 0.0007	 9.3625	10.1793	10.8962	11.2877	0
103	28	7	1	10	488.5921	29	1	800	362878.6751	 0.0007	11.3164	12.1298	12.8465	13.3360	0
103	28	8	1	10	262.5739	56	1	800	362878.6751	 0.0007	13.3662	14.1802	14.8968	15.1603	0
103	28	9	1	10	316.9124	56	1	800	362878.6751	 0.0007	15.1811	15.9972	16.7140	17.0319	0
103	28	10	1	10	273.8630	56	1	800	362878.6751	 0.0007	17.0483	17.8641	18.5809	18.8557	0
103	28	11	1	10	256.4479	56	1	800	362878.6751	 0.0007	18.8808	19.6978	20.4146	20.6720	0
103	28	12	1	10	264.2336	56	1	800	362878.6751	 0.0007	20.6878	21.4982	22.2149	22.4801	0
103	28	13	1	10	246.9583	56	1	800	362878.6751	 0.0007	22.4984	23.3152	24.0320	24.2799	0
103	28	14	1	10	262.6999	56	1	800	362878.6751	 0.0007	24.2986	25.1156	25.8323	26.0958	0
103	28	15	1	10	405.1891	29	1	800	362878.6751	 0.0007	26.1155	26.9325	27.6493	28.0555	0
103	28	16	1	10	301.9420	56	1	800	362878.6751	 0.0007	28.0868	28.8995	29.6165	29.9195	0
103	28	17	1	10	395.7324	29	1	800	362878.6751	 0.0007	29.9378	30.7499	31.4668	31.8637	0
103	28	18	1	10	373.6092	29	1	800	362878.6751	 0.0007	31.8836	32.7003	33.4172	33.7920	0
103	28	19	1	10	343.9136	29	1	800	362878.6751	 0.0007	33.8170	34.6340	35.3508	35.6957	0
103	28	20	1	10	332.1269	29	1	800	362878.6751	 0.0007	35.7217	36.5343	37.2511	37.5841	0
103	28	21	1	10	367.5798	56	1	800	362878.6751	 0.0007	37.6014	38.4181	39.1349	39.5036	0
103	28	22	1	10	323.4735	29	1	800	362878.6751	 0.0007	39.5191	40.3351	41.0519	41.3763	0
103	28	23	1	10	368.0284	29	1	800	362878.6751	 0.0007	41.3903	42.2021	42.9189	43.2879	0
103	28	24	1	10	330.9424	29	1	800	362878.6751	 0.0007	43.3051	44.1191	44.8358	45.1678	0
103	28	25	1	10	326.8676	29	1	800	362878.6751	 0.0007	45.1861	46.0028	46.7195	47.0476	0
103	28	26	1	10	459.5820	56	1	800	362878.6751	 0.0007	47.0732	47.8865	48.6032	49.0639	0
103	28	27	1	10	330.6786	56	1	800	362878.6751	 0.0007	49.0869	49.9035	50.6203	50.9521	0
103	28	28	1	10	343.0149	29	1	800	362878.6751	 0.0007	50.9711	51.7873	52.5040	52.8480	0
103	28	29	1	10	362.4516	29	1	800	362878.6751	 0.0007	52.8710	53.6876	54.4045	54.7679	0
103	28	30	1	10	317.0199	56	1	800	362878.6751	 0.0007	54.7915	55.6047	56.3214	56.6395	0
103	29	1	1	10	466.7418	29	1	800	362941.6827	 0.0007	 0.0148	 0.8316	 1.5484	 2.0162	0
103	29	2	1	10	337.6134	29	1	800	362941.6827	 0.0007	 2.0329	 2.8488	 3.5656	 3.9042	0
103	29	3	1	10	277.6398	29	1	800	362941.6827	 0.0007	 3.9336	 4.7490	 5.4658	 5.7443	0
103	29	4	1	10	364.0431	56	0	800	362941.6827	 0.0007	 5.7689	 6.5828	 7.2995	 7.6645	0
103	29	5	1	10	298.7760	29	1	800	362941.6827	 0.0007	 0.0247	 0.8392	 1.5560	 1.8557	0
103	29	6	1	10	392.5117	29	0	800	362941.6827	 0.0007	 1.8733	 2.6896	 3.4065	 3.8001	0
103	29	7	1	10	650.3850	56	0	800	362941.6827	 0.0007	 0.0196	 0.8319	 1.5487	 2.2000	0
103	29	8	1	10	496.6781	29	1	800	362941.6827	 0.0007	 0.0243	 0.8412	 1.5580	 2.0557	0
103	29	9	1	10	342.2017	56	1	800	362941.6827	 0.0007	 2.0752	 2.8917	 3.6085	 3.9518	0
103	29	10	1	10	378.6312	56	0	800	362941.6827	 0.0007	 3.9752	 4.7919	 5.5088	 5.8884	0
103	29	11	1	10	356.8600	29	1	800	362941.6827	 0.0007	 0.0173	 0.8287	 1.5456	 1.9034	0
103	29	12	1	10	432.0927	56	1	800	362941.6827	 0.0007	 1.9326	 2.7458	 3.4626	 3.8956	0
103	29	1	2	10	330.0393	29	1	800	362941.6827	 0.0007	 0.0105	 0.8239	 1.5407	 1.8717	 3.8977
103	29	2	2	10	350.6485	29	1	800	362941.6827	 0.0007	 1.8912	 2.7075	 3.4243	 3.7760	 3.8977
103	29	3	2	10	314.7769	56	1	800	362941.6827	 0.0007	 3.7912	 4.6080	 5.3246	 5.6403	 3.8977
103	29	4	2	10	607.3504	29	1	800	362941.6827	 0.0007	 5.6583	 6.4748	 7.1917	 7.8000	 3.8977
103	29	5	2	10	328.1243	29	1	800	362941.6827	 0.0007	 7.8250	 8.6419	 9.3588	 9.6879	 3.8977
103	29	6	2	10	323.9106	56	1	800	362941.6827	 0.0007	 9.7092	10.5256	11.2426	11.5677	 3.8977
103	29	7	2	10	305.0018	56	1	800	362941.6827	 0.0007	11.5925	12.4094	13.1261	13.4326	 3.8977
103	29	8	2	10	325.2597	29	1	800	362941.6827	 0.0007	13.4636	14.2763	14.9932	15.3195	 3.8977
103	29	9	2	10	393.8544	29	1	800	362941.6827	 0.0007	15.3492	16.1601	16.8769	17.2717	 3.8977
103	29	10	2	10	323.3092	29	1	800	362941.6827	 0.0007	17.2970	18.1104	18.8274	19.1517	 3.8977
103	29	11	2	10	375.6086	56	1	800	362941.6827	 0.0007	19.1824	19.9941	20.7110	21.0877	 3.8977
103	29	12	2	10	402.0861	29	1	800	362941.6827	 0.0007	21.1108	21.9279	22.6447	23.0478	 3.8977
103	30	1	1	10	395.1103	29	1	800	363013.8977	 0.0015	 0.0150	 0.8321	 1.5488	 1.9450	0
103	30	2	1	10	356.2657	29	1	800	363013.8977	 0.0015	 1.9698	 2.7823	 3.4993	 3.8565	0
103	30	3	1	10	279.8593	56	1	800	363013.8977	 0.0015	 3.8723	 4.6827	 5.3995	 5.6803	0
103	30	4	1	10	365.6032	29	1	800	363013.8977	 0.0015	 5.6995	 6.5164	 7.2332	 7.5999	0
103	30	5	1	10	337.3837	29	1	800	363013.8977	 0.0015	 7.6171	 8.4334	 9.1502	 9.4885	0
103	30	6	1	10	333.4163	56	1	800	363013.8977	 0.0015	 9.5004	10.3171	11.0339	11.3682	0
103	30	7	1	10	353.8431	29	1	800	363013.8977	 0.0015	11.3846	12.2007	12.9176	13.2723	0
103	30	8	1	10	324.9581	56	1	800	363013.8977	 0.0015	13.2842	14.1012	14.8179	15.1443	0
103	30	9	1	10	329.4864	29	1	800	363013.8977	 0.0015	15.1679	15.9849	16.7016	17.0324	0
103	30	10	1	10	357.9701	29	1	800	363013.8977	 0.0015	17.0516	17.8686	18.5853	18.9443	0
103	30	11	1	10	288.5373	56	1	800	363013.8977	 0.0015	18.9696	19.7855	20.5023	20.7919	0
103	30	12	1	10	351.6409	29	1	800	363013.8977	 0.0015	20.8026	21.6193	22.3360	22.6886	0
103	30	13	1	10	274.5945	56	1	800	363013.8977	 0.0015	22.7090	23.5195	24.2364	24.5120	0
103	30	14	1	10	304.6834	56	1	800	363013.8977	 0.0015	24.5422	25.3534	26.0701	26.3759	0
103	30	15	1	10	326.4754	29	1	800	363013.8977	 0.0015	26.3875	27.2035	27.9203	28.2479	0
103	30	16	1	10	387.3654	29	1	800	363013.8977	 0.0015	28.2716	29.0872	29.8041	30.1925	0
103	30	17	1	10	253.3087	56	1	800	363013.8977	 0.0015	30.2056	31.0211	31.7378	31.9921	0
103	30	18	1	10	324.7596	29	1	800	363013.8977	 0.0015	32.0120	32.8214	33.5382	33.8641	0
103	30	19	1	10	393.4387	29	1	800	363013.8977	 0.0015	33.8884	34.7052	35.4218	35.8162	0
103	30	20	1	10	347.1187	29	1	800	363013.8977	 0.0015	35.8400	36.6555	37.3723	37.7204	0
103	30	21	1	10	310.8459	29	1	800	363013.8977	 0.0015	37.7425	38.5558	39.2726	39.5844	0
103	30	22	1	10	356.1286	29	1	800	363013.8977	 0.0015	39.6078	40.4228	41.1396	41.4966	0
103	30	23	1	10	335.0479	29	1	800	363013.8977	 0.0015	41.5065	42.3231	43.0400	43.3761	0
103	30	24	1	10	308.1227	29	1	800	363013.8977	 0.0015	43.3953	44.2068	44.9236	45.2326	0
103	30	25	1	10	584.7933	56	1	800	363013.8977	 0.0015	45.2571	46.0741	46.7906	47.3764	0
103	30	26	1	10	347.0350	56	1	800	363013.8977	 0.0015	47.3967	48.2077	48.9243	49.2723	0
103	30	27	1	10	350.5529	29	1	800	363013.8977	 0.0015	49.2971	50.1079	50.8248	51.1763	0
103	30	28	1	10	554.3506	56	1	800	363013.8977	 0.0015	51.1927	52.0083	52.7253	53.2806	0
103	30	29	1	10	350.1513	29	1	800	363013.8977	 0.0015	53.2958	54.1088	54.8255	55.1768	0
103	30	30	1	10	345.6958	56	1	800	363013.8977	 0.0015	55.1966	56.0091	56.7258	57.0724	0
103	31	1	1	11	353.8378	56	1	800	363083.7766	 0.0008	 0.0224	 0.8322	 1.5489	 1.9038	0
103	31	2	1	11	253.7697	56	1	800	363083.7766	 0.0008	 1.9178	 2.7325	 3.4494	 3.7042	0
103	31	3	1	11	253.6331	56	1	800	363083.7766	 0.0008	 3.7194	 4.5330	 5.2496	 5.5043	0
103	31	4	1	11	477.3194	29	1	800	363083.7766	 0.0008	 5.5239	 6.3331	 7.0499	 7.5282	0
103	31	5	1	11	291.3214	56	1	800	363083.7766	 0.0008	 7.5541	 8.3670	 9.0838	 9.3761	0
103	31	6	1	11	337.0027	29	1	800	363083.7766	 0.0008	 9.4005	10.2172	10.9341	11.2721	0
103	31	7	1	11	325.6352	29	1	800	363083.7766	 0.0008	11.2856	12.1009	12.8177	13.1443	0
103	31	8	1	11	281.9952	56	1	800	363083.7766	 0.0008	13.1683	13.9846	14.7015	14.9844	0
103	31	9	1	11	296.5718	56	1	800	363083.7766	 0.0008	15.0055	15.8184	16.5352	16.8327	0
103	31	10	1	11	357.4631	29	1	800	363083.7766	 0.0008	16.8555	17.6687	18.3855	18.7439	0
103	31	11	1	11	296.9889	56	1	800	363083.7766	 0.0008	18.7689	19.5858	20.3025	20.6004	0
103	31	12	1	11	294.2968	56	1	800	363083.7766	 0.0008	20.6244	21.4360	22.1530	22.4482	0
103	32	1	1	11	457.3892	29	1	800	363124.5514	 0.0008	 0.0083	 0.8253	 1.5421	 2.0004	0
103	32	2	1	11	265.1486	56	1	800	363124.5514	 0.0008	 2.0095	 2.8258	 3.5424	 3.8086	0
103	32	3	1	11	295.9702	56	1	800	363124.5514	 0.0008	 3.8325	 4.6428	 5.3594	 5.6564	0
103	32	4	1	11	381.6419	29	1	800	363124.5514	 0.0008	 5.6791	 6.4930	 7.2100	 7.5925	0
103	32	5	1	11	296.0177	56	1	800	363124.5514	 0.0008	 7.6142	 8.4269	 9.1436	 9.4406	0
103	32	6	1	11	285.6048	56	1	800	363124.5514	 0.0008	 9.4647	10.2771	10.9940	11.2805	0
103	32	7	1	11	331.7771	29	1	800	363124.5514	 0.0008	11.3003	12.1108	12.8276	13.1604	0
103	32	8	1	11	279.7514	56	1	800	363124.5514	 0.0008	13.1812	13.9945	14.7112	14.9921	0
103	32	9	1	11	358.7455	29	1	800	363124.5514	 0.0008	15.0167	15.8281	16.5450	16.9046	0
103	32	10	1	11	369.5488	29	1	800	363124.5514	 0.0008	16.9288	17.7452	18.4621	18.8326	0
103	32	11	1	11	339.9847	56	1	800	363124.5514	 0.0008	18.8528	19.6622	20.3790	20.7200	0
103	32	12	1	11	368.5304	29	1	800	363124.5514	 0.0008	20.7292	21.5460	22.2629	22.6323	0
103	32	13	1	11	387.5008	29	1	800	363124.5514	 0.0008	22.6507	23.4629	24.1798	24.5682	0
103	32	14	1	11	341.4838	29	1	800	363124.5514	 0.0008	24.5834	25.3967	26.1134	26.4561	0
103	32	15	1	11	337.0129	29	1	800	363124.5514	 0.0008	26.4803	27.2970	28.0138	28.3520	0
103	32	16	1	11	293.6049	56	1	800	363124.5514	 0.0008	28.3658	29.1807	29.8975	30.1921	0
103	32	17	1	11	315.8681	29	1	800	363124.5514	 0.0008	30.2148	31.0310	31.7480	32.0650	0
103	32	18	1	11	351.9710	29	1	800	363124.5514	 0.0008	32.0811	32.8981	33.6149	33.9680	0
103	32	19	1	11	692.3485	29	1	800	363124.5514	 0.0008	33.9857	34.7984	35.5153	36.2085	0
103	32	20	1	11	281.8755	56	1	800	363124.5514	 0.0008	36.2320	37.0489	37.7656	38.0484	0
103	32	21	1	11	359.5823	29	1	800	363124.5514	 0.0008	38.0701	38.8825	39.5993	39.9601	0
103	32	22	1	11	298.7002	56	1	800	363124.5514	 0.0008	39.9840	40.7996	41.5164	41.8163	0
103	32	23	1	11	328.2730	29	1	800	363124.5514	 0.0008	41.8378	42.6501	43.3666	43.6960	0
103	32	24	1	11	404.9620	29	1	800	363124.5514	 0.0008	43.7182	44.5335	45.2504	45.6563	0
103	32	25	1	11	286.6224	56	1	800	363124.5514	 0.0008	45.6678	46.4841	47.2008	47.4885	0
103	32	26	1	11	348.8436	29	1	800	363124.5514	 0.0008	47.5010	48.3176	49.0346	49.3844	0
103	32	27	1	11	343.9492	29	1	800	363124.5514	 0.0008	49.4067	50.2180	50.9349	51.2800	0
103	32	28	1	11	292.0742	56	1	800	363124.5514	 0.0008	51.3035	52.1184	52.8352	53.1283	0
103	32	29	1	11	321.9536	29	1	800	363124.5514	 0.0008	53.1526	53.9687	54.6855	55.0084	0
103	32	30	1	11	398.8647	29	1	800	363124.5514	 0.0008	55.0197	55.8358	56.5527	56.9525	0
103	33	1	1	11	404.8871	56	1	800	363216.6733	 0.0014	 0.0177	 0.8295	 1.5461	 1.9520	0
103	33	2	1	11	374.3233	29	1	800	363216.6733	 0.0014	 1.9630	 2.7798	 3.4966	 3.8718	0
103	33	3	1	11	353.4891	56	1	800	363216.6733	 0.0014	 3.8810	 4.6968	 5.4136	 5.7680	0
103	33	4	1	11	325.1311	29	1	800	363216.6733	 0.0014	 5.7804	 6.5971	 7.3139	 7.6400	0
103	33	5	1	11	297.6728	56	1	800	363216.6733	 0.0014	 7.6677	 8.4810	 9.1976	 9.4962	0
103	33	6	1	11	351.0457	29	1	800	363216.6733	 0.0014	 9.5143	10.3312	11.0480	11.4000	0
103	33	7	1	11	314.0371	56	1	800	363216.6733	 0.0014	11.4166	12.2316	12.9485	13.2636	0
103	33	8	1	11	327.2755	29	1	800	363216.6733	 0.0014	13.2855	14.0986	14.8153	15.1437	0
103	33	9	1	11	291.6932	29	1	800	363216.6733	 0.0014	15.1679	15.9822	16.6992	16.9919	0
103	33	10	1	11	369.1725	56	1	800	363216.6733	 0.0014	17.0161	17.8327	18.5495	18.9198	0
103	33	11	1	11	372.2195	29	1	800	363216.6733	 0.0014	18.9396	19.7496	20.4665	20.8397	0
103	33	12	1	11	343.6965	29	1	800	363216.6733	 0.0014	20.8499	21.6669	22.3834	22.7281	0
103	34	1	1	12	349.6383	29	1	800	363248.1082	 0.0007	 0.0177	 0.8290	 1.5458	 1.8964	0
103	34	2	1	12	296.9954	56	1	800	363248.1082	 0.0007	 1.9166	 2.7296	 3.4462	 3.7441	0
103	34	3	1	12	358.5457	29	1	800	363248.1082	 0.0007	 3.7687	 4.5798	 5.2966	 5.6562	0
103	34	4	1	12	393.7476	29	1	800	363248.1082	 0.0007	 5.6806	 6.4968	 7.2135	 7.6083	0
103	34	5	1	12	371.1605	56	1	800	363248.1082	 0.0007	 7.6306	 8.4470	 9.1640	 9.5362	0
103	34	6	1	12	358.0416	29	1	800	363248.1082	 0.0007	 9.5480	10.3642	11.0811	11.4402	0
103	34	7	1	12	401.1636	29	1	800	363248.1082	 0.0007	11.4642	12.2813	12.9980	13.4001	0
103	34	8	1	12	378.5226	29	1	800	363248.1082	 0.0007	13.4192	14.2318	14.9484	15.3280	0
103	34	9	1	12	341.4095	29	1	800	363248.1082	 0.0007	15.3501	16.1655	16.8821	17.2244	0
103	34	10	1	12	376.7643	29	1	800	363248.1082	 0.0007	17.2492	18.0656	18.7825	19.1602	0
103	34	11	1	12	346.7876	56	1	800	363248.1082	 0.0007	19.1825	19.9993	20.7162	21.0640	0
103	34	12	1	12	286.8616	56	1	800	363248.1082	 0.0007	21.0871	21.8998	22.6165	22.9044	0
103	34	13	1	12	252.6093	56	1	800	363248.1082	 0.0007	22.9172	23.7334	24.4504	24.7040	0
103	34	14	1	12	356.3631	29	1	800	363248.1082	 0.0007	24.7236	25.5339	26.2506	26.6079	0
103	34	15	1	12	303.8471	56	1	800	363248.1082	 0.0007	26.6173	27.4342	28.1508	28.4558	0
103	34	16	1	12	389.8999	56	1	800	363248.1082	 0.0007	28.4701	29.2844	30.0013	30.3922	0
103	34	17	1	12	279.9353	56	1	800	363248.1082	 0.0007	30.4013	31.2182	31.9351	32.2163	0
103	34	18	1	12	342.4221	56	1	800	363248.1082	 0.0007	32.2412	33.0519	33.7688	34.1122	0
103	34	19	1	12	297.5783	56	1	800	363248.1082	 0.0007	34.1354	34.9523	35.6691	35.9677	0
103	34	20	1	12	311.9276	29	1	800	363248.1082	 0.0007	35.9902	36.8025	37.5194	37.8323	0
103	34	21	1	12	292.7545	56	1	800	363248.1082	 0.0007	37.8535	38.6696	39.3864	39.6805	0
103	34	22	1	12	281.9313	56	1	800	363248.1082	 0.0007	39.7036	40.5200	41.2369	41.5199	0
103	34	23	1	12	408.6225	29	1	800	363248.1082	 0.0007	41.5419	42.3536	43.0705	43.4801	0
103	34	24	1	12	370.0409	29	1	800	363248.1082	 0.0007	43.5044	44.3206	45.0374	45.4084	0
103	34	25	1	12	404.1661	56	1	800	363248.1082	 0.0007	45.4208	46.2377	46.9548	47.3600	0
103	34	26	1	12	350.4209	29	1	800	363248.1082	 0.0007	47.3715	48.1880	48.9048	49.2562	0
103	34	27	1	12	305.7928	56	1	800	363248.1082	 0.0007	49.2763	50.0884	50.8052	51.1121	0
103	34	28	1	12	326.9652	56	1	800	363248.1082	 0.0007	51.1224	51.9388	52.6557	52.9837	0
103	34	29	1	12	411.3687	29	1	800	363248.1082	 0.0007	53.0095	53.8224	54.5392	54.9517	0
103	34	30	1	12	428.7479	29	1	800	363248.1082	 0.0007	54.9749	55.7896	56.5062	56.9362	0
103	35	1	1	12	449.5607	56	1	800	363339.1093	 0.0007	 0.0081	 0.8244	 1.5411	 1.9917	0
103	35	2	1	12	353.4175	29	1	800	363339.1093	 0.0007	 2.0076	 2.8247	 3.5415	 3.8958	0
103	35	3	1	12	548.9374	29	1	800	363339.1093	 0.0007	 3.9157	 4.7250	 5.4419	 5.9918	0
103	35	4	1	12	272.3104	56	1	800	363339.1093	 0.0007	 6.0153	 6.8254	 7.5422	 7.8156	0
103	35	5	1	12	415.5071	56	1	800	363339.1093	 0.0007	 7.8261	 8.6424	 9.3593	 9.7757	0
103	35	6	1	12	400.3652	29	1	800	363339.1093	 0.0007	 9.7981	10.6095	11.3263	11.7277	0
103	35	7	1	12	377.4619	29	1	800	363339.1093	 0.0007	11.7441	12.5599	13.2768	13.6554	0
103	35	8	1	12	340.2930	29	1	800	363339.1093	 0.0007	13.6768	14.4936	15.2104	15.5517	0
103	35	9	1	12	521.0102	29	1	800	363339.1093	 0.0007	15.5610	16.3773	17.0941	17.6160	0
103	35	10	1	12	317.1920	29	1	800	363339.1093	 0.0007	17.6297	18.4443	19.1611	19.4794	0
103	35	11	1	12	322.2974	56	1	800	363339.1093	 0.0007	19.5039	20.3115	21.0281	21.3517	0
103	35	12	1	12	296.0998	56	1	800	363339.1093	 0.0007	21.3622	22.1785	22.8952	23.1921	0
103	36	1	1	12	626.0448	56	1	800	363374.2858	 0.0008	 0.0147	 0.8312	 1.5481	 2.1756	0
103	36	2	1	12	362.9543	29	1	800	363374.2858	 0.0008	 2.1982	 3.0150	 3.7319	 4.0958	0
103	36	3	1	12	397.1812	29	1	800	363374.2858	 0.0008	 4.1188	 4.9321	 5.6490	 6.0472	0
103	36	4	1	12	286.9898	56	1	800	363374.2858	 0.0008	 6.0694	 6.8824	 7.5992	 7.8873	0
103	36	5	1	12	269.4127	56	1	800	363374.2858	 0.0008	 7.9010	 8.7161	 9.4330	 9.7034	0
103	36	6	1	12	252.6448	56	1	800	363374.2858	 0.0008	 9.7162	10.5331	11.2501	11.5037	0
103	36	7	1	12	340.1610	29	1	800	363374.2858	 0.0008	11.5235	12.3336	13.0503	13.3914	0
103	36	8	1	12	416.3279	29	1	800	363374.2858	 0.0008	13.4007	14.2171	14.9340	15.3513	0
103	36	9	1	12	305.6632	56	1	800	363374.2858	 0.0008	15.3726	16.1842	16.9010	17.2077	0
103	36	10	1	12	302.9868	56	1	800	363374.2858	 0.0008	17.2177	18.0345	18.7514	19.0554	0
103	36	11	1	12	252.1658	56	1	800	363374.2858	 0.0008	19.0682	19.8850	20.6018	20.8551	0
103	36	12	1	12	252.8217	56	1	800	363374.2858	 0.0008	20.8756	21.6853	22.4022	22.6560	0
103	36	13	1	12	699.8312	1	0	800	363374.2858	 0.0008	22.6750	23.4857	24.2023	24.9030	0
103	36	14	1	12	423.9791	29	1	800	363374.2858	 0.0008	 0.0222	 0.8339	 1.5508	 1.9758	0
103	36	15	1	12	552.9845	29	1	800	363374.2858	 0.0008	 1.9849	 2.8010	 3.5179	 4.0719	0
103	36	16	1	12	268.6110	56	1	800	363374.2858	 0.0008	 4.0849	 4.9013	 5.6181	 5.8877	0
103	36	17	1	12	308.1786	56	1	800	363374.2858	 0.0008	 5.9073	 6.7184	 7.4352	 7.7443	0
103	36	18	1	12	312.2368	29	1	800	363374.2858	 0.0008	 7.7693	 8.5854	 9.3022	 9.6156	0
103	36	19	1	12	405.2788	29	1	800	363374.2858	 0.0008	 9.6367	10.4524	11.1693	11.5756	0
103	36	20	1	12	287.3795	56	1	800	363374.2858	 0.0008	11.5863	12.4028	13.1196	13.4082	0
103	36	21	1	12	269.8883	56	1	800	363374.2858	 0.0008	13.4204	14.2365	14.9532	15.2243	0
103	36	22	1	12	341.0728	29	1	800	363374.2858	 0.0008	15.2369	16.0535	16.7703	17.1123	0
103	36	23	1	12	352.6131	29	1	800	363374.2858	 0.0008	17.1212	17.9372	18.6539	19.0075	0
103	36	24	1	12	372.6269	56	1	800	363374.2858	 0.0008	19.0206	19.8375	20.5544	20.9279	0
103	36	25	1	12	280.2170	56	1	800	363374.2858	 0.0008	20.9379	21.7546	22.4713	22.7525	0
103	36	26	1	12	294.0998	56	1	800	363374.2858	 0.0008	22.7775	23.5882	24.3050	24.6002	0
103	36	27	1	12	315.6835	56	1	800	363374.2858	 0.0008	24.6238	25.4385	26.1555	26.4721	0
103	36	28	1	12	288.7728	56	1	800	363374.2858	 0.0008	26.4934	27.3056	28.0224	28.3121	0
103	36	29	1	12	326.9285	29	1	800	363374.2858	 0.0008	28.3223	29.1393	29.8561	30.1840	0
103	36	30	1	12	299.1079	56	1	800	363374.2858	 0.0008	30.2091	31.0231	31.7398	32.0399	0
103	37	1	1	13	402.3030	29	1	800	363447.8351	 0.0007	 0.0239	 0.8321	 1.5489	 1.9523	0
103	37	2	1	13	307.8572	56	1	800	363447.8351	 0.0007	 1.9752	 2.7827	 3.4994	 3.8083	0
103	37	3	1	13	353.1286	29	1	800	363447.8351	 0.0007	 3.8326	 4.6496	 5.3664	 5.7205	0
103	37	4	1	13	356.6756	29	1	800	363447.8351	 0.0007	 5.7331	 6.5499	 7.2667	 7.6243	0
103	37	5	1	13	295.7641	56	1	800	363447.8351	 0.0007	 7.6335	 8.4502	 9.1671	 9.4640	0
103	37	6	1	13	366.1815	29	1	800	363447.8351	 0.0007	 9.4888	10.3006	11.0176	11.3846	0
103	37	7	1	13	304.3801	29	1	800	363447.8351	 0.0007	11.4060	12.2177	12.9345	13.2399	0
103	37	8	1	13	414.5242	56	1	800	363447.8351	 0.0007	13.2513	14.0679	14.7849	15.2003	0
103	37	9	1	13	327.5558	29	1	800	363447.8351	 0.0007	15.2246	16.0350	16.7519	17.0804	0
103	37	10	1	13	307.6567	56	1	800	363447.8351	 0.0007	17.1022	17.9187	18.6356	18.9442	0
103	37	11	1	13	305.2098	56	1	800	363447.8351	 0.0007	18.9693	19.7858	20.5025	20.8086	0
103	37	12	1	13	350.7772	29	1	800	363447.8351	 0.0007	20.8197	21.6362	22.3529	22.7046	0
103	38	1	1	13	330.6655	56	1	800	363479.0393	 0.0010	 0.0070	 0.8231	 1.5398	 1.8718	0
103	38	2	1	13	271.8421	56	1	800	363479.0393	 0.0010	 1.8944	 2.7067	 3.4235	 3.6963	0
103	38	3	1	13	262.4889	56	1	800	363479.0393	 0.0010	 3.7074	 4.5237	 5.2405	 5.5040	0
103	38	4	1	13	293.4952	56	1	800	363479.0393	 0.0010	 5.5284	 6.3409	 7.0575	 7.3520	0
103	38	5	1	13	283.3751	56	1	800	363479.0393	 0.0010	 7.3748	 8.1911	 8.9079	 9.1923	0
103	38	6	1	13	344.8645	29	1	800	363479.0393	 0.0010	 9.2078	10.0248	10.7415	11.0875	0
103	38	7	1	13	293.0091	56	1	800	363479.0393	 0.0010	11.1105	11.9251	12.6420	12.9360	0
103	38	8	1	13	354.8001	29	1	800	363479.0393	 0.0010	12.9588	13.7755	14.4923	14.8480	0
103	38	9	1	13	349.7173	29	1	800	363479.0393	 0.0010	14.8592	15.6760	16.3928	16.7436	0
103	38	10	1	13	345.8624	29	1	800	363479.0393	 0.0010	16.7668	17.5762	18.2930	18.6399	0
103	38	11	1	13	269.9278	56	1	800	363479.0393	 0.0010	18.6632	19.4765	20.1934	20.4642	0
103	38	12	1	13	396.4045	56	1	800	363479.0393	 0.0010	20.4769	21.2936	22.0104	22.4078	0
103	38	13	1	13	349.6682	29	1	800	363479.0393	 0.0010	22.4321	23.2441	23.9608	24.3116	0
103	38	14	1	13	321.8845	29	1	800	363479.0393	 0.0010	24.3275	25.1443	25.8612	26.1840	0
103	38	15	1	13	342.9971	56	1	800	363479.0393	 0.0010	26.1953	27.0113	27.7282	28.0721	0
103	38	16	1	13	282.0077	56	1	800	363479.0393	 0.0010	28.0957	28.9116	29.6285	29.9116	0
103	38	17	1	13	336.6636	56	1	800	363479.0393	 0.0010	29.9285	30.7453	31.4622	31.7998	0
103	38	18	1	13	356.7780	29	1	800	363479.0393	 0.0010	31.8129	32.6291	33.3460	33.7038	0
103	38	19	1	13	256.9946	56	0	800	363479.0393	 0.0010	33.7127	34.5294	35.2463	35.5042	0
103	38	20	1	13	699.5457	1	0	800	363479.0393	 0.0010	 0.0216	 0.8319	 1.5486	 2.2490	0
103	38	21	1	13	422.8686	29	1	800	363479.0393	 0.0010	 0.0263	 0.8357	 1.5524	 1.9762	0
103	38	22	1	13	327.5792	56	1	800	363479.0393	 0.0010	 1.9857	 2.8027	 3.5197	 3.8483	0
103	38	23	1	13	284.5239	56	1	800	363479.0393	 0.0010	 3.8732	 4.6865	 5.4033	 5.6887	0
103	38	24	1	13	354.5152	56	1	800	363479.0393	 0.0010	 5.7060	 6.5202	 7.2369	 7.5923	0
103	38	25	1	13	366.3505	29	1	800	363479.0393	 0.0010	 7.6037	 8.4206	 9.1373	 9.5046	0
103	38	26	1	13	377.1538	29	1	800	363479.0393	 0.0010	 9.5296	10.3375	11.0542	11.4323	0
103	38	27	1	13	371.0914	29	1	800	363479.0393	 0.0010	11.4566	12.2712	12.9880	13.3603	0
103	38	28	1	13	374.4982	29	1	800	363479.0393	 0.0010	13.3715	14.1883	14.9050	15.2805	0
103	38	29	1	13	304.8291	56	1	800	363479.0393	 0.0010	15.3054	16.1219	16.8387	17.1444	0
103	38	30	1	13	278.3753	56	1	800	363479.0393	 0.0010	17.1557	17.9722	18.6890	18.9683	0
103	39	1	1	13	328.8946	56	1	800	363564.2519	 0.0008	 0.0225	 0.8336	 1.5504	 1.8803	0
103	39	2	1	13	284.8192	56	1	800	363564.2519	 0.0008	 1.9030	 2.7171	 3.4341	 3.7201	0
103	39	3	1	13	371.4666	29	1	800	363564.2519	 0.0008	 3.7385	 4.5510	 5.2677	 5.6401	0
103	39	4	1	13	310.8001	56	1	800	363564.2519	 0.0008	 5.6514	 6.4695	 7.1847	 7.4964	0
103	39	5	1	13	363.7308	29	1	800	363564.2519	 0.0008	 7.5187	 8.3350	 9.0517	 9.4163	0
103	39	6	1	13	326.4439	56	1	800	363564.2519	 0.0008	 9.4395	10.2520	10.9688	11.2961	0
103	39	7	1	13	386.9040	29	1	800	363564.2519	 0.0008	11.3197	12.1357	12.8524	13.2403	0
103	39	8	1	13	389.1329	29	1	800	363564.2519	 0.0008	13.2535	14.0695	14.7862	15.1763	0
103	39	9	1	13	295.7665	56	1	800	363564.2519	 0.0008	15.1867	16.0030	16.7198	17.0165	0
103	39	10	1	13	485.4611	29	1	800	363564.2519	 0.0008	17.0415	17.8535	18.5702	19.0565	0
103	39	11	1	13	378.8516	29	1	800	363564.2519	 0.0008	19.0743	19.8872	20.6039	20.9839	0
103	39	12	1	13	429.8435	29	0	800	363564.2519	 0.0008	21.0076	21.8210	22.5377	22.9685	0
103	39	1	2	13	385.6449	29	1	800	363564.2519	 0.0008	 0.0078	 0.8240	 1.5408	 1.9275	 0.0020
103	39	2	2	13	235.8666	56	1	800	363564.2519	 0.0008	 1.9469	 2.7577	 3.4745	 3.7114	 0.0020
103	39	3	2	13	468.2279	29	1	800	363564.2519	 0.0008	 3.7244	 4.5415	 5.2581	 5.7274	 0.0020
103	39	4	2	13	331.2372	29	1	800	363564.2519	 0.0008	 5.7479	 6.5584	 7.2753	 7.6076	 0.0020
103	39	5	2	13	400.3657	29	1	800	363564.2519	 0.0008	 7.6290	 8.4422	 9.1588	 9.5601	 0.0020
103	39	6	2	13	329.4136	29	1	800	363564.2519	 0.0008	 9.5756	10.3924	11.1093	11.4396	 0.0020
103	39	7	2	13	389.1711	29	1	800	363564.2519	 0.0008	11.4639	12.2762	12.9931	13.3834	 0.0020
103	39	8	2	13	344.1279	56	1	800	363564.2519	 0.0008	13.3929	14.2099	14.9267	15.2717	 0.0020
103	39	9	2	13	363.9310	29	1	800	363564.2519	 0.0008	15.2971	16.1102	16.8270	17.1918	 0.0020
103	39	10	2	13	406.6095	29	1	800	363564.2519	 0.0008	17.2147	18.0272	18.7441	19.1516	 0.0020
103	39	11	2	13	343.9169	56	1	800	363564.2519	 0.0008	19.1616	19.9776	20.6944	21.0394	 0.0020
103	39	12	2	13	276.2073	56	1	800	363564.2519	 0.0008	21.0632	21.8781	22.5949	22.8723	 0.0020
103	40	1	1	14	363.2804	56	1	800	363629.3309	 0.0007	 0.0076	 0.8234	 1.5403	 1.9046	0
103	40	2	1	14	342.2009	29	1	800	363629.3309	 0.0007	 1.9275	 2.7405	 3.4574	 3.8005	0
103	40	3	1	14	378.0265	29	1	800	363629.3309	 0.0007	 3.8246	 4.6408	 5.3576	 5.7365	0
103	40	4	1	14	268.2510	56	1	800	363629.3309	 0.0007	 5.7600	 6.5746	 7.2913	 7.5605	0
103	40	5	1	14	403.1571	29	1	800	363629.3309	 0.0007	 7.5784	 8.3916	 9.1084	 9.5125	0
103	40	6	1	14	268.8239	56	1	800	363629.3309	 0.0007	 9.5252	10.3420	11.0588	11.3286	0
103	40	7	1	14	419.1801	29	1	800	363629.3309	 0.0007	11.3491	12.1590	12.8758	13.2962	0
103	40	8	1	14	356.8094	29	1	800	363629.3309	 0.0007	13.3091	14.1261	14.8429	15.2006	0
103	40	9	1	14	319.4042	29	1	800	363629.3309	 0.0007	15.2096	16.0264	16.7433	17.0640	0
103	40	10	1	14	284.7091	56	1	800	363629.3309	 0.0007	17.0789	17.8936	18.6102	18.8960	0
103	40	11	1	14	339.7908	29	1	800	363629.3309	 0.0007	18.9150	19.7271	20.4439	20.7845	0
103	40	12	1	14	335.8385	29	1	800	363629.3309	 0.0007	20.7948	21.6107	22.3276	22.6646	0
103	40	13	1	14	268.4464	56	1	800	363629.3309	 0.0007	22.6835	23.4945	24.2112	24.4806	0
103	40	14	1	14	267.6120	56	1	800	363629.3309	 0.0007	24.5007	25.3115	26.0283	26.2971	0
103	40	15	1	14	394.3136	56	1	800	363629.3309	 0.0007	26.3184	27.1285	27.8453	28.2411	0
103	40	16	1	14	347.5282	29	1	800	363629.3309	 0.0007	28.2622	29.0789	29.7957	30.1442	0
103	40	17	1	14	327.5346	29	1	800	363629.3309	 0.0007	30.1668	30.9792	31.6960	32.0244	0
103	40	18	1	14	331.9999	29	1	800	363629.3309	 0.0007	32.0478	32.8629	33.5797	33.9126	0
103	40	19	1	14	336.1179	29	1	800	363629.3309	 0.0007	33.9343	34.7468	35.4634	35.8004	0
103	40	20	1	14	379.9286	29	1	800	363629.3309	 0.0007	35.8206	36.6303	37.3471	37.7281	0
103	40	21	1	14	342.5670	29	1	800	363629.3309	 0.0007	37.7535	38.5640	39.2807	39.6243	0
103	40	22	1	14	282.4031	56	1	800	363629.3309	 0.0007	39.6473	40.4643	41.1812	41.4649	0
103	40	23	1	14	344.1361	56	1	800	363629.3309	 0.0007	41.4867	42.2982	43.0148	43.3612	0
103	40	24	1	14	267.8140	56	1	800	363629.3309	 0.0007	43.3849	44.1984	44.9152	45.1842	0
103	40	25	1	14	338.5342	29	1	800	363629.3309	 0.0007	45.2023	46.0155	46.7322	47.0721	0
103	40	26	1	14	295.6134	56	1	800	363629.3309	 0.0007	47.0823	47.8991	48.6159	48.9126	0
103	40	27	1	14	301.2123	56	1	800	363629.3309	 0.0007	48.9327	49.7495	50.4662	50.7683	0
103	40	28	1	14	267.1335	56	1	800	363629.3309	 0.0007	50.7884	51.5998	52.3166	52.5847	0
103	40	29	1	14	321.9452	56	1	800	363629.3309	 0.0007	52.6086	53.4170	54.1335	54.4564	0
103	40	30	1	14	270.1165	56	1	800	363629.3309	 0.0007	54.4676	55.2838	56.0008	56.2718	0
103	41	1	1	14	385.7586	56	1	800	363701.0604	 0.0007	 0.0083	 0.8248	 1.5416	 1.9282	0
103	41	2	1	14	299.2912	56	1	800	363701.0604	 0.0007	 1.9460	 2.7585	 3.4753	 3.7757	0
103	41	3	1	14	321.3956	29	1	800	363701.0604	 0.0007	 3.7967	 4.6089	 5.3257	 5.6480	0
103	41	4	1	14	533.9918	56	0	800	363701.0604	 0.0007	 5.6592	 6.4758	 7.1926	 7.7277	0
103	41	5	1	14	437.4855	29	1	800	363701.0604	 0.0007	 0.0127	 0.8288	 1.5456	 1.9840	0
103	41	6	1	14	381.2120	29	1	800	363701.0604	 0.0007	 1.9984	 2.8125	 3.5293	 3.9116	0
103	41	7	1	14	520.2375	56	1	800	363701.0604	 0.0007	 3.9348	 4.7462	 5.4631	 5.9843	0
103	41	8	1	14	500.0619	56	1	800	363701.0604	 0.0007	 5.9970	 6.8133	 7.5303	 8.0313	0
103	41	9	1	14	434.6703	29	1	800	363701.0604	 0.0007	 8.0559	 8.8639	 9.5806	10.0162	0
103	41	10	1	14	474.9516	56	0	800	363701.0604	 0.0007	10.0366	10.8474	11.5642	12.0401	0
103	41	11	1	14	 0.1110	29	0	800	363701.0604	 0.0007	 0.0203	 0.8316	 1.5485	 1.5500	0
103	41	12	1	14	516.5186	29	1	800	363701.0604	 0.0007	 0.0154	 0.8297	 1.5464	 2.0639	0
103	41	1	2	14	353.6333	56	1	800	363701.0604	 0.0007	 0.0082	 0.8244	 1.5413	 1.8959	 2.0659
103	41	2	2	14	349.4838	29	1	800	363701.0604	 0.0007	 1.9097	 2.7249	 3.4416	 3.7920	 2.0659
103	41	3	2	14	377.2403	29	1	800	363701.0604	 0.0007	 3.8081	 4.6252	 5.3421	 5.7202	 2.0659
103	41	4	2	14	379.1320	56	1	800	363701.0604	 0.0007	 5.7427	 6.5589	 7.2758	 7.6559	 2.0659
103	41	5	2	14	349.6356	29	1	800	363701.0604	 0.0007	 7.6756	 8.4926	 9.2094	 9.5600	 2.0659
103	41	6	2	14	337.4036	29	1	800	363701.0604	 0.0007	 9.5813	10.3931	11.1098	11.4482	 2.0659
103	41	7	2	14	309.8030	56	1	800	363701.0604	 0.0007	11.4636	12.2766	12.9935	13.3042	 2.0659
103	41	8	2	14	354.0772	29	1	800	363701.0604	 0.0007	13.3279	14.1437	14.8605	15.2157	 2.0659
103	41	9	2	14	342.5198	29	1	800	363701.0604	 0.0007	15.2271	16.0440	16.7609	17.1045	 2.0659
103	41	10	2	14	313.8850	56	1	800	363701.0604	 0.0007	17.1283	17.9444	18.6612	18.9760	 2.0659
103	41	11	2	14	383.0111	56	1	800	363701.0604	 0.0007	18.9989	19.8114	20.5282	20.9121	 2.0659
103	41	12	2	14	392.7238	29	1	800	363701.0604	 0.0007	20.9282	21.7451	22.4619	22.8556	 2.0659
103	42	1	1	14	490.6504	56	1	800	363762.5630	 0.0007	 0.0209	 0.8317	 1.5484	 2.0399	0
103	42	2	1	14	312.1563	56	1	800	363762.5630	 0.0007	 2.0489	 2.8653	 3.5822	 3.8956	0
103	42	3	1	14	413.4171	29	1	800	363762.5630	 0.0007	 3.9214	 4.7323	 5.4493	 5.8637	0
103	42	4	1	14	286.1042	56	1	800	363762.5630	 0.0007	 5.8870	 6.6995	 7.4163	 7.7034	0
103	42	5	1	14	388.6535	29	1	800	363762.5630	 0.0007	 7.7235	 8.5332	 9.2499	 9.6395	0
103	42	6	1	14	311.1250	56	1	800	363762.5630	 0.0007	 9.6506	10.4668	11.1836	11.4957	0
103	42	7	1	14	244.5172	56	0	800	363762.5630	 0.0007	11.5214	12.3337	13.0506	13.2960	0
103	42	8	1	14	345.4715	56	1	800	363762.5630	 0.0007	 0.0198	 0.8327	 1.5494	 1.8958	0
103	42	9	1	14	389.1741	29	1	800	363762.5630	 0.0007	 1.9164	 2.7329	 3.4497	 3.8398	0
103	42	10	1	14	399.0672	56	1	800	363762.5630	 0.0007	 3.8497	 4.6667	 5.3836	 5.7836	0
103	42	11	1	14	352.8819	56	1	800	363762.5630	 0.0007	 5.8046	 6.6170	 7.3340	 7.6878	0
103	42	12	1	14	563.6121	56	1	800	363762.5630	 0.0007	 7.7057	 8.5174	 9.2343	 9.7991	0
103	42	13	1	14	374.6966	29	1	800	363762.5630	 0.0007	 9.8215	10.6345	11.3513	11.7271	0
103	42	14	1	14	305.9036	56	1	800	363762.5630	 0.0007	11.7515	12.5682	13.2850	13.5918	0
103	42	15	1	14	366.8289	56	1	800	363762.5630	 0.0007	13.6018	14.4186	15.1353	15.5032	0
103	42	16	1	14	321.7034	29	1	800	363762.5630	 0.0007	15.5218	16.3356	17.0524	17.3752	0
103	42	17	1	14	359.2881	29	1	800	363762.5630	 0.0007	17.3858	18.2026	18.9194	19.2796	0
103	42	18	1	14	330.3879	56	1	800	363762.5630	 0.0007	19.3029	20.1196	20.8364	21.1677	0
103	42	19	1	14	366.6090	29	1	800	363762.5630	 0.0007	21.1926	22.0033	22.7201	23.0876	0
103	42	20	1	14	353.0405	29	1	800	363762.5630	 0.0007	23.1034	23.9205	24.6372	24.9912	0
103	42	21	1	14	381.1164	29	1	800	363762.5630	 0.0007	25.0040	25.8206	26.5376	26.9196	0
103	42	22	1	14	407.2064	29	1	800	363762.5630	 0.0007	26.9437	27.7544	28.4713	28.8795	0
103	42	23	1	14	361.3701	29	1	800	363762.5630	 0.0007	28.8887	29.7050	30.4215	30.7838	0
103	42	24	1	14	339.3162	56	1	800	363762.5630	 0.0007	30.8075	31.6218	32.3386	32.6791	0
103	42	25	1	14	368.2950	29	1	800	363762.5630	 0.0007	32.6885	33.5056	34.2223	34.5915	0
103	42	26	1	14	298.4573	56	1	800	363762.5630	 0.0007	34.6102	35.4225	36.1394	36.4391	0
103	42	27	1	14	352.3780	56	1	800	363762.5630	 0.0007	36.4618	37.2729	37.9896	38.3430	0
103	42	28	1	14	380.1350	29	1	800	363762.5630	 0.0007	38.3616	39.1732	39.8901	40.2715	0
103	42	29	1	14	350.4299	56	1	800	363762.5630	 0.0007	40.2938	41.1070	41.8237	42.1752	0
103	42	30	1	14	298.8101	56	1	800	363762.5630	 0.0007	42.1956	43.0073	43.7242	44.0239	0
103	43	1	1	15	355.7106	29	1	800	363829.2906	 0.0007	 0.0242	 0.8389	 1.5557	 1.9124	0
103	43	2	1	15	334.7118	29	1	800	363829.2906	 0.0007	 1.9226	 2.7393	 3.4561	 3.7920	0
103	43	3	1	15	331.5231	29	1	800	363829.2906	 0.0007	 3.8113	 4.6230	 5.3399	 5.6724	0
103	43	4	1	15	359.7159	56	1	800	363829.2906	 0.0007	 5.6935	 6.5067	 7.2236	 7.5843	0
103	43	5	1	15	338.1809	29	1	800	363829.2906	 0.0007	 7.6077	 8.4237	 9.1405	 9.4802	0
103	43	6	1	15	454.8922	56	1	800	363829.2906	 0.0007	 9.4908	10.3075	11.0244	11.4802	0
103	43	7	1	15	334.4378	56	1	800	363829.2906	 0.0007	11.4916	12.3078	13.0246	13.3601	0
103	43	8	1	15	330.8214	56	1	800	363829.2906	 0.0007	13.3792	14.1914	14.9084	15.2403	0
103	43	9	1	15	335.4749	56	1	800	363829.2906	 0.0007	15.2623	16.0752	16.7921	17.1285	0
103	43	10	1	15	467.2734	29	1	800	363829.2906	 0.0007	17.1489	17.9589	18.6757	19.1441	0
103	43	11	1	15	411.1248	56	1	800	363829.2906	 0.0007	19.1637	19.9761	20.6927	21.1048	0
103	43	12	1	15	611.8312	29	1	800	363829.2906	 0.0007	21.1306	21.9431	22.6598	23.2728	0
103	44	1	1	15	421.8802	29	1	800	363889.2163	 0.0007	 0.0124	 0.8277	 1.5447	 1.9675	0
103	44	2	1	15	343.2991	56	1	800	363889.2163	 0.0007	 1.9781	 2.7949	 3.5117	 3.8559	0
103	44	3	1	15	290.4181	56	1	800	363889.2163	 0.0007	 3.8801	 4.6951	 5.4120	 5.7034	0
103	44	4	1	15	273.2113	56	1	800	363889.2163	 0.0007	 5.7130	 6.5288	 7.2458	 7.5200	0
103	44	5	1	15	328.1732	29	1	800	363889.2163	 0.0007	 7.5289	 8.3459	 9.0628	 9.3919	0
103	44	6	1	15	355.8424	29	1	800	363889.2163	 0.0007	 9.4174	10.2295	10.9464	11.3036	0
103	44	7	1	15	336.2655	29	1	800	363889.2163	 0.0007	11.3131	12.1299	12.8469	13.1840	0
103	44	8	1	15	316.2595	56	1	800	363889.2163	 0.0007	13.2042	14.0137	14.7304	15.0479	0
103	44	9	1	15	385.7091	29	1	800	363889.2163	 0.0007	15.0678	15.8806	16.5975	16.9842	0
103	44	10	1	15	347.2570	29	1	800	363889.2163	 0.0007	17.0025	17.8144	18.5312	18.8795	0
103	44	11	1	15	303.4846	56	1	800	363889.2163	 0.0007	18.9016	19.7147	20.4315	20.7360	0
103	44	12	1	15	445.3867	29	1	800	363889.2163	 0.0007	20.7492	21.5650	22.2819	22.7283	0
103	44	13	1	15	373.0079	29	1	800	363889.2163	 0.0007	22.7523	23.5654	24.2823	24.6562	0
103	44	14	1	15	423.7919	29	0	800	363889.2163	 0.0007	24.6662	25.4824	26.1993	26.6240	0
103	44	15	1	15	366.2438	29	1	800	363889.2163	 0.0007	 0.0126	 0.8286	 1.5451	 1.9123	0
103	44	16	1	15	416.7264	29	1	800	363889.2163	 0.0007	 1.9335	 2.7456	 3.4624	 3.8801	0
103	44	17	1	15	385.8432	29	1	800	363889.2163	 0.0007	 3.8957	 4.7127	 5.4296	 5.8164	0
103	44	18	1	15	563.5285	29	1	800	363889.2163	 0.0007	 5.8316	 6.6463	 7.3631	 7.9277	0
103	44	19	1	15	334.9356	29	1	800	363889.2163	 0.0007	 7.9503	 8.7634	 9.4802	 9.8161	0
103	44	20	1	15	331.3090	56	1	800	363889.2163	 0.0007	 9.8340	10.6471	11.3639	11.6962	0
103	44	21	1	15	335.3266	56	1	800	363889.2163	 0.0007	11.7193	12.5307	13.2475	13.5838	0
103	44	22	1	15	299.6811	56	1	800	363889.2163	 0.0007	13.6045	14.4146	15.1312	15.4319	0
103	44	23	1	15	329.6629	29	1	800	363889.2163	 0.0007	15.4554	16.2650	16.9817	17.3123	0
103	44	24	1	15	349.1974	29	1	800	363889.2163	 0.0007	17.3374	18.1486	18.8654	19.2161	0
103	44	25	1	15	345.1773	29	1	800	363889.2163	 0.0007	19.2362	20.0489	20.7657	21.1119	0
103	44	26	1	15	341.0023	56	1	800	363889.2163	 0.0007	21.1384	21.9492	22.6661	23.0081	0
103	44	27	1	15	368.6250	29	1	800	363889.2163	 0.0007	23.0328	23.8497	24.5664	24.9360	0
103	44	28	1	15	347.6671	29	1	800	363889.2163	 0.0007	24.9543	25.7666	26.4836	26.8322	0
103	44	29	1	15	383.6745	56	1	800	363889.2163	 0.0007	26.8537	27.6670	28.3838	28.7684	0
103	44	30	1	15	353.1618	56	1	800	363889.2163	 0.0007	28.7887	29.6006	30.3176	30.6719	0
103	45	1	1	15	368.8755	29	1	800	363975.4029	 0.0007	 0.0081	 0.8249	 1.5417	 1.9116	0
103	45	2	1	15	308.3142	56	1	800	363975.4029	 0.0007	 1.9312	 2.7420	 3.4587	 3.7679	0
103	45	3	1	15	281.0229	56	1	800	363975.4029	 0.0007	 3.7930	 4.6090	 5.3257	 5.6077	0
103	45	4	1	15	343.5113	29	1	800	363975.4029	 0.0007	 5.6304	 6.4426	 7.1596	 7.5041	0
103	45	5	1	15	283.3309	56	1	800	363975.4029	 0.0007	 7.5267	 8.3430	 9.0600	 9.3448	0
103	45	6	1	15	265.1167	56	1	800	363975.4029	 0.0007	 9.3672	10.1767	10.8936	11.1597	0
103	45	7	1	15	320.3572	29	1	800	363975.4029	 0.0007	11.1847	11.9937	12.7106	13.0320	0
103	45	8	1	15	325.0021	29	1	800	363975.4029	 0.0007	13.0476	13.8609	14.5775	14.9037	0
103	45	9	1	15	298.1846	56	1	800	363975.4029	 0.0007	14.9121	15.7278	16.4445	16.7437	0
103	45	10	1	15	360.1590	29	1	800	363975.4029	 0.0007	16.7662	17.5782	18.2950	18.6563	0
103	45	11	1	15	634.5077	29	1	800	363975.4029	 0.0007	18.6802	19.4953	20.2119	20.8475	0
103	45	12	1	15	354.9870	29	1	800	363975.4029	 0.0007	20.8661	21.6789	22.3957	22.7517	0
103	46	1	1	16	317.4242	56	1	800	364006.2412	 0.0007	 0.0234	 0.8365	 1.5533	 1.8719	0
103	46	2	1	16	306.3186	56	1	800	364006.2412	 0.0007	 1.8904	 2.7035	 3.4204	 3.7278	0
103	46	3	1	16	336.0019	56	1	800	364006.2412	 0.0007	 3.7374	 4.5538	 5.2706	 5.6078	0
103	46	4	1	16	292.4710	56	1	800	364006.2412	 0.0007	 5.6216	 6.4375	 7.1544	 7.4481	0
103	46	5	1	16	298.0688	29	1	800	364006.2412	 0.0007	 7.4731	 8.2879	 9.0046	 9.3040	0
103	46	6	1	16	392.4992	29	1	800	364006.2412	 0.0007	 9.3269	10.1382	10.8550	11.2484	0
103	46	7	1	16	354.0699	29	1	800	364006.2412	 0.0007	11.2717	12.0887	12.8053	13.1603	0
103	46	8	1	16	285.5584	56	1	800	364006.2412	 0.0007	13.1744	13.9889	14.7059	14.9924	0
103	46	9	1	16	323.4097	56	1	800	364006.2412	 0.0007	15.0126	15.8228	16.5395	16.8640	0
103	46	10	1	16	328.4778	29	1	800	364006.2412	 0.0007	16.8733	17.6897	18.4065	18.7362	0
103	46	11	1	16	301.5335	56	1	800	364006.2412	 0.0007	18.7612	19.5734	20.2901	20.5926	0
103	46	12	1	16	355.0874	29	1	800	364006.2412	 0.0007	20.6105	21.4238	22.1405	22.4965	0
103	46	13	1	16	278.0317	56	1	800	364006.2412	 0.0007	22.5078	23.3241	24.0409	24.3199	0
103	46	14	1	16	316.8501	29	1	800	364006.2412	 0.0007	24.3448	25.1577	25.8746	26.1924	0
103	46	15	1	16	457.8964	29	1	800	364006.2412	 0.0007	26.2082	27.0247	27.7416	28.2004	0
103	46	16	1	16	336.8814	29	1	800	364006.2412	 0.0007	28.2094	29.0252	29.7419	30.0798	0
103	46	17	1	16	293.4762	56	1	800	364006.2412	 0.0007	30.0959	30.9089	31.6257	31.9201	0
103	46	18	1	16	330.9331	29	1	800	364006.2412	 0.0007	31.9449	32.7593	33.4760	33.8084	0
103	46	19	1	16	343.5308	29	1	800	364006.2412	 0.0007	33.8311	34.6429	35.3599	35.7043	0
103	46	20	1	16	339.3905	29	1	800	364006.2412	 0.0007	35.7272	36.5432	37.2601	37.6004	0
103	46	21	1	16	343.2202	56	1	800	364006.2412	 0.0007	37.6105	38.4269	39.1439	39.4881	0
103	46	22	1	16	315.4430	29	1	800	364006.2412	 0.0007	39.5111	40.3274	41.0441	41.3605	0
103	46	23	1	16	328.0185	56	1	800	364006.2412	 0.0007	41.3824	42.1945	42.9111	43.2402	0
103	46	24	1	16	324.1867	29	1	800	364006.2412	 0.0007	43.2613	44.0780	44.7949	45.1201	0
103	46	25	1	16	336.6028	29	1	800	364006.2412	 0.0007	45.1488	45.9618	46.6786	47.0164	0
103	46	26	1	16	293.4399	56	1	800	364006.2412	 0.0007	47.0309	47.8454	48.5621	48.8566	0
103	46	27	1	16	330.9353	29	1	800	364006.2412	 0.0007	48.8829	49.6958	50.4126	50.7445	0
103	46	28	1	16	311.1369	56	1	800	364006.2412	 0.0007	50.7672	51.5794	52.2963	52.6083	0
103	46	29	1	16	324.0986	29	1	800	364006.2412	 0.0007	52.6297	53.4464	54.1632	54.4882	0
103	46	30	1	16	337.2778	29	1	800	364006.2412	 0.0007	54.4972	55.3136	56.0304	56.3687	0
103	47	1	1	16	493.5643	56	1	800	364067.5327	 0.0007	 0.0138	 0.8281	 1.5450	 2.0395	0
103	47	2	1	16	363.6602	56	1	800	364067.5327	 0.0007	 2.0642	 2.8785	 3.5953	 3.9599	0
103	47	3	1	16	325.3966	56	1	800	364067.5327	 0.0007	 3.9828	 4.7956	 5.5124	 5.8389	0
103	47	4	1	16	346.6772	29	1	800	364067.5327	 0.0007	 5.8622	 6.6793	 7.3960	 7.7436	0
103	47	5	1	16	301.4926	56	1	800	364067.5327	 0.0007	 7.7668	 8.5797	 9.2963	 9.5990	0
103	47	6	1	16	331.8119	29	1	800	364067.5327	 0.0007	 9.6174	10.4299	11.1469	11.4796	0
103	47	7	1	16	344.1482	29	1	800	364067.5327	 0.0007	11.5023	12.3136	13.0305	13.3758	0
