SUBID	BLOCK	TRIAL	REP	RUNID	RT	RESP	ACC	RSIJIT	EV_START	EV_BLOCK	EV_TRIAL	EV_RETRIEVAL	EV_PROBE	EV_RESP	EV_BLEND
301	1	1	1	1	546.0416	56	1	800	18789.0846	 0.0035	 0.0147	 0.8312	 1.5479	 2.0968	0
301	1	2	1	1	453.7500	29	0	800	18789.0846	 0.0035	 2.1312	 2.9479	 3.6645	 4.1202	0
301	1	3	1	1	538.8557	56	1	800	18789.0846	 0.0035	 0.0300	 0.8633	 1.5799	 2.1207	0
301	1	4	1	1	550.8082	56	1	800	18789.0846	 0.0035	 2.1466	 2.9632	 3.6799	 4.2322	0
301	1	5	1	1	440.6964	56	0	800	18789.0846	 0.0035	 4.2637	 5.0801	 5.7969	 6.2513	0
301	1	6	1	1	699.4327	1	0	800	18789.0846	 0.0035	 0.0284	 0.8450	 1.5617	 2.2630	0
301	1	7	1	1	505.4562	29	1	800	18789.0846	 0.0035	 0.0240	 0.8407	 1.5574	 2.0648	0
301	1	8	1	1	391.2426	56	1	800	18789.0846	 0.0035	 2.0744	 2.8907	 3.6074	 4.0000	0
301	1	9	1	1	609.3347	56	1	800	18789.0846	 0.0035	 4.0241	 4.8407	 5.5573	 6.1677	0
301	1	10	1	1	443.0521	29	1	800	18789.0846	 0.0035	 6.1908	 7.0074	 7.7241	 8.1680	0
301	1	11	1	1	458.6094	29	1	800	18789.0846	 0.0035	 8.1907	 9.0073	 9.7240	10.1837	0
301	1	12	1	1	506.4288	29	1	800	18789.0846	 0.0035	10.2074	11.0239	11.7407	12.2481	0
301	1	1	2	1	493.7063	29	1	800	18789.0846	 0.0035	 0.0125	 0.8291	 1.5458	 2.0408	12.2513
301	1	2	2	1	475.0381	29	1	800	18789.0846	 0.0035	 2.0626	 2.8791	 3.5958	 4.0718	12.2513
301	1	3	2	1	699.4388	1	0	800	18789.0846	 0.0035	 4.0820	 4.8958	 5.6124	 6.3126	12.2513
301	1	4	2	1	525.8470	56	1	800	18789.0846	 0.0035	 0.0198	 0.8365	 1.5532	 2.0801	12.2513
301	1	5	2	1	490.8529	56	1	800	18789.0846	 0.0035	 2.1032	 2.9199	 3.6365	 4.1284	12.2513
301	1	6	2	1	585.1318	29	1	800	18789.0846	 0.0035	 4.1393	 4.9532	 5.6698	 6.2571	12.2513
301	1	7	2	1	372.6648	56	1	800	18789.0846	 0.0035	 6.2699	 7.0865	 7.8032	 8.1771	12.2513
301	1	8	2	1	495.7401	29	1	800	18789.0846	 0.0035	 8.1865	 9.0032	 9.7199	10.2166	12.2513
301	1	9	2	1	469.3266	29	1	800	18789.0846	 0.0035	10.2365	11.0532	11.7699	12.2404	12.2513
301	1	10	2	1	484.7926	29	1	800	18789.0846	 0.0035	12.2532	13.0698	13.7865	14.2723	12.2513
301	1	11	2	1	691.0888	56	1	800	18789.0846	 0.0035	14.2866	15.1032	15.8199	16.5121	12.2513
301	1	12	2	1	393.8530	56	1	800	18789.0846	 0.0035	16.5225	17.3365	18.0532	18.4482	12.2513
301	1	1	3	1	406.9198	56	1	800	18789.0846	 0.0035	 0.0107	 0.8274	 1.5440	 1.9520	18.4509
301	1	2	3	1	416.3582	56	1	800	18789.0846	 0.0035	 1.9774	 2.7939	 3.5107	 3.9280	18.4509
301	1	3	3	1	513.7534	29	1	800	18789.0846	 0.0035	 3.9440	 4.7607	 5.4773	 5.9921	18.4509
301	1	4	3	1	350.3683	56	1	800	18789.0846	 0.0035	 6.0107	 6.8274	 7.5440	 7.8954	18.4509
301	1	5	3	1	554.7756	56	1	800	18789.0846	 0.0035	 7.9107	 8.7273	 9.4441	10.0000	18.4509
301	1	6	3	1	374.3497	56	1	800	18789.0846	 0.0035	10.0107	10.8274	11.5440	11.9194	18.4509
301	1	7	3	1	618.3324	29	1	800	18789.0846	 0.0035	11.9275	12.7440	13.4607	14.0800	18.4509
301	1	8	3	1	371.0343	56	1	800	18789.0846	 0.0035	14.0941	14.9107	15.6274	15.9994	18.4509
301	1	9	3	1	454.2961	56	1	800	18789.0846	 0.0035	16.0106	16.8274	17.5441	17.9993	18.4509
301	1	10	3	1	366.6347	56	1	800	18789.0846	 0.0035	18.0106	18.8274	19.5440	19.9117	18.4509
301	1	11	3	1	417.6460	56	1	800	18789.0846	 0.0035	19.9273	20.7440	21.4608	21.8796	18.4509
301	1	12	3	1	499.1869	56	1	800	18789.0846	 0.0035	21.8941	22.7107	23.4274	23.9277	18.4509
301	2	1	1	1	509.1243	29	1	800	18924.6843	 0.0022	 0.0040	 0.8207	 1.5374	 2.0476	0
301	2	2	1	1	419.1282	29	1	800	18924.6843	 0.0022	 2.0541	 2.8708	 3.5874	 4.0082	0
301	2	3	1	1	453.2307	56	0	800	18924.6843	 0.0022	 4.0207	 4.8374	 5.5540	 6.0082	0
301	2	4	1	1	427.9468	56	1	800	18924.6843	 0.0022	 0.0130	 0.8298	 1.5465	 1.9757	0
301	2	5	1	1	412.9115	56	1	800	18924.6843	 0.0022	 1.9964	 2.8131	 3.5298	 3.9437	0
301	2	6	1	1	438.1190	29	1	800	18924.6843	 0.0022	 3.9631	 4.7797	 5.4964	 5.9357	0
301	2	7	1	1	374.5518	56	1	800	18924.6843	 0.0022	 5.9463	 6.7630	 7.4797	 7.8554	0
301	2	8	1	1	546.3709	29	1	800	18924.6843	 0.0022	 7.8630	 8.6797	 9.3964	 9.9438	0
301	2	9	1	1	526.4733	29	1	800	18924.6843	 0.0022	 9.9631	10.7798	11.4964	12.0240	0
301	2	10	1	1	395.0793	56	1	800	18924.6843	 0.0022	12.0296	12.8465	13.5630	13.9592	0
301	2	11	1	1	469.5286	29	1	800	18924.6843	 0.0022	13.9798	14.7964	15.5131	15.9837	0
301	2	12	1	1	460.6698	29	1	800	18924.6843	 0.0022	15.9964	16.8130	17.5298	17.9915	0
301	2	13	1	1	516.2255	56	1	800	18924.6843	 0.0022	18.0131	18.8296	19.5464	20.0639	0
301	2	14	1	1	417.5205	29	1	800	18924.6843	 0.0022	20.0797	20.8964	21.6131	22.0317	0
301	2	15	1	1	571.1384	56	0	800	18924.6843	 0.0022	22.0465	22.8630	23.5797	24.1517	0
301	2	16	1	1	353.4440	56	1	800	18924.6843	 0.0022	 0.0161	 0.8328	 1.5495	 1.9040	0
301	2	17	1	1	565.7245	29	1	800	18924.6843	 0.0022	 1.9161	 2.7328	 3.4495	 4.0161	0
301	2	18	1	1	513.0172	29	1	800	18924.6843	 0.0022	 4.0328	 4.8494	 5.5662	 6.0802	0
301	2	19	1	1	349.9735	56	1	800	18924.6843	 0.0022	 6.0995	 6.9161	 7.6328	 7.9839	0
301	2	20	1	1	362.0273	56	1	800	18924.6843	 0.0022	 7.9995	 8.8160	 9.5328	 9.8960	0
301	2	21	1	1	365.9025	56	1	800	18924.6843	 0.0022	 9.9162	10.7328	11.4494	11.8163	0
301	2	22	1	1	440.5038	29	1	800	18924.6843	 0.0022	11.8328	12.6494	13.3661	13.8077	0
301	2	23	1	1	537.9037	29	1	800	18924.6843	 0.0022	13.8161	14.6327	15.3494	15.8883	0
301	2	24	1	1	382.1520	56	1	800	18924.6843	 0.0022	15.8994	16.7161	17.4327	17.8159	0
301	2	25	1	1	329.1295	56	1	800	18924.6843	 0.0022	17.8328	18.6494	19.3661	19.6963	0
301	2	26	1	1	341.0150	56	1	800	18924.6843	 0.0022	19.7161	20.5328	21.2494	21.5916	0
301	2	27	1	1	433.7630	56	1	800	18924.6843	 0.0022	21.5995	22.4161	23.1328	23.5676	0
301	2	28	1	1	674.6224	56	1	800	18924.6843	 0.0022	23.5828	24.3994	25.1162	25.7918	0
301	2	29	1	1	473.6835	29	1	800	18924.6843	 0.0022	25.7996	26.6161	27.3328	27.8074	0
301	2	30	1	1	353.1451	56	1	800	18924.6843	 0.0022	27.8161	28.6328	29.3495	29.7037	0
301	3	1	1	1	514.7602	29	1	800	18995.0176	 0.0026	 0.0071	 0.8238	 1.5405	 2.0563	0
301	3	2	1	1	384.1383	56	1	800	18995.0176	 0.0026	 2.0737	 2.8905	 3.6071	 3.9923	0
301	3	3	1	1	466.3301	29	1	800	18995.0176	 0.0026	 4.0071	 4.8238	 5.5405	 6.0078	0
301	3	4	1	1	449.7455	56	1	800	18995.0176	 0.0026	 6.0238	 6.8405	 7.5572	 8.0080	0
301	3	5	1	1	497.7403	29	1	800	18995.0176	 0.0026	 8.0238	 8.8404	 9.5572	10.0561	0
301	3	6	1	1	528.2175	56	1	800	18995.0176	 0.0026	10.0738	10.8904	11.6071	12.1364	0
301	3	7	1	1	484.5183	29	1	800	18995.0176	 0.0026	12.1571	12.9737	13.6904	14.1760	0
301	3	8	1	1	539.2119	29	1	800	18995.0176	 0.0026	14.1904	15.0071	15.7238	16.2641	0
301	3	9	1	1	392.0261	56	1	800	18995.0176	 0.0026	16.2737	17.0905	17.8071	18.2002	0
301	3	10	1	1	419.1542	56	1	800	18995.0176	 0.0026	18.2070	19.0238	19.7404	20.1607	0
301	3	11	1	1	379.7254	56	1	800	18995.0176	 0.0026	20.1738	20.9904	21.7071	22.0878	0
301	3	12	1	1	342.8164	56	1	800	18995.0176	 0.0026	22.1071	22.9238	23.6404	23.9843	0
301	4	1	1	2	482.9071	56	1	800	19040.2180	 0.0023	 0.0067	 0.8234	 1.5400	 2.0240	0
301	4	2	1	2	329.0838	56	1	800	19040.2180	 0.0023	 2.0401	 2.8567	 3.5734	 3.9036	0
301	4	3	1	2	469.7873	29	1	800	19040.2180	 0.0023	 3.9235	 4.7401	 5.4567	 5.9275	0
301	4	4	1	2	565.2966	56	1	800	19040.2180	 0.0023	 5.9401	 6.7568	 7.4734	 8.0397	0
301	4	5	1	2	344.5249	56	1	800	19040.2180	 0.0023	 8.0568	 8.8734	 9.5901	 9.9357	0
301	4	6	1	2	468.4451	29	1	800	19040.2180	 0.0023	 9.9568	10.7734	11.4900	11.9595	0
301	4	7	1	2	387.8714	56	1	800	19040.2180	 0.0023	11.9735	12.7901	13.5067	13.8956	0
301	4	8	1	2	699.9290	1	0	800	19040.2180	 0.0023	13.9067	14.7234	15.4401	16.1408	0
301	4	9	1	2	346.3963	56	1	800	19040.2180	 0.0023	 0.0159	 0.8326	 1.5492	 1.8967	0
301	4	10	1	2	366.0998	29	0	800	19040.2180	 0.0023	 1.9159	 2.7325	 3.4493	 3.8165	0
301	4	11	1	2	442.5780	29	1	800	19040.2180	 0.0023	 0.0150	 0.8317	 1.5484	 1.9920	0
301	4	12	1	2	475.1919	29	1	800	19040.2180	 0.0023	 1.9983	 2.8150	 3.5317	 4.0079	0
301	4	13	1	2	442.0710	56	1	800	19040.2180	 0.0023	 4.0149	 4.8316	 5.5484	 5.9917	0
301	4	14	1	2	354.6049	56	1	800	19040.2180	 0.0023	 5.9984	 6.8150	 7.5317	 7.8877	0
301	4	15	1	2	294.4740	56	1	800	19040.2180	 0.0023	 7.8983	 8.7150	 9.4317	 9.7272	0
301	4	16	1	2	564.5408	56	1	800	19040.2180	 0.0023	 9.7484	10.5649	11.2817	11.8473	0
301	4	17	1	2	415.6247	29	1	800	19040.2180	 0.0023	11.8650	12.6816	13.3984	13.8149	0
301	4	18	1	2	361.5345	56	1	800	19040.2180	 0.0023	13.8317	14.6483	15.3650	15.7279	0
301	4	19	1	2	380.4368	29	1	800	19040.2180	 0.0023	15.7483	16.5649	17.2817	17.6633	0
301	4	20	1	2	391.5673	56	1	800	19040.2180	 0.0023	17.6817	18.4983	19.2150	19.6076	0
301	4	21	1	2	570.0657	56	1	800	19040.2180	 0.0023	19.6149	20.4316	21.1484	21.7196	0
301	4	22	1	2	699.9789	1	0	800	19040.2180	 0.0023	21.7317	22.5483	23.2650	23.9658	0
301	4	23	1	2	297.9475	56	1	800	19040.2180	 0.0023	 0.0234	 0.8400	 1.5567	 1.8557	0
301	4	24	1	2	519.7074	56	0	800	19040.2180	 0.0023	 1.8734	 2.6900	 3.4067	 3.9274	0
301	4	25	1	2	699.5508	1	0	800	19040.2180	 0.0023	 0.0187	 0.8354	 1.5521	 2.2526	0
301	4	26	1	2	359.2418	56	1	800	19040.2180	 0.0023	 0.0187	 0.8352	 1.5520	 1.9123	0
301	4	27	1	2	371.8255	29	1	800	19040.2180	 0.0023	 1.9185	 2.7352	 3.4519	 3.8247	0
301	4	28	1	2	390.3198	56	1	800	19040.2180	 0.0023	 3.8352	 4.6520	 5.3685	 5.7599	0
301	4	29	1	2	360.9483	56	1	800	19040.2180	 0.0023	 5.7686	 6.5853	 7.3020	 7.6639	0
301	4	30	1	2	420.5657	29	1	800	19040.2180	 0.0023	 7.6854	 8.5020	 9.2187	 9.6403	0
301	5	1	1	2	354.1285	56	1	800	19106.6686	 0.0043	 0.0076	 0.8243	 1.5410	 1.8962	0
301	5	2	1	2	454.5574	56	1	800	19106.6686	 0.0043	 1.9076	 2.7243	 3.4410	 3.8965	0
301	5	3	1	2	453.7757	29	1	800	19106.6686	 0.0043	 3.9077	 4.7243	 5.4410	 5.8958	0
301	5	4	1	2	437.8727	29	1	800	19106.6686	 0.0043	 5.9077	 6.7243	 7.4410	 7.8800	0
301	5	5	1	2	326.3624	56	1	800	19106.6686	 0.0043	 7.8910	 8.7076	 9.4244	 9.7518	0
301	5	6	1	2	417.6542	29	1	800	19106.6686	 0.0043	 9.8076	10.6243	11.3410	11.7596	0
301	5	7	1	2	411.4780	29	1	800	19106.6686	 0.0043	11.7743	12.5910	13.3077	13.7205	0
301	5	8	1	2	516.7036	29	1	800	19106.6686	 0.0043	13.7410	14.5576	15.2744	15.7923	0
301	5	9	1	2	393.7716	56	1	800	19106.6686	 0.0043	15.8076	16.6244	17.3410	17.7359	0
301	5	10	1	2	396.0401	29	1	800	19106.6686	 0.0043	17.7577	18.5744	19.2910	19.6882	0
301	5	11	1	2	502.5165	29	1	800	19106.6686	 0.0043	19.7076	20.5244	21.2410	21.7445	0
301	5	12	1	2	435.8481	29	1	800	19106.6686	 0.0043	21.7576	22.5744	23.2910	23.7280	0
301	6	1	1	2	337.2056	56	1	800	19153.9675	 0.0028	 0.0085	 0.8252	 1.5419	 1.8803	0
301	6	2	1	2	437.8384	56	1	800	19153.9675	 0.0028	 1.8919	 2.7086	 3.4253	 3.8642	0
301	6	3	1	2	382.5375	29	1	800	19153.9675	 0.0028	 3.8752	 4.6919	 5.4085	 5.7920	0
301	6	4	1	2	385.1343	29	1	800	19153.9675	 0.0028	 5.8085	 6.6251	 7.3418	 7.7281	0
301	6	5	1	2	387.7999	29	1	800	19153.9675	 0.0028	 7.7418	 8.5586	 9.2752	 9.6641	0
301	6	6	1	2	447.2952	56	1	800	19153.9675	 0.0028	 9.6752	10.4919	11.2086	11.6570	0
301	6	7	1	2	366.7136	56	1	800	19153.9675	 0.0028	11.6753	12.4918	13.2085	13.5763	0
301	6	8	1	2	362.0837	56	1	800	19153.9675	 0.0028	13.5919	14.4085	15.1253	15.4886	0
301	6	9	1	2	349.2284	56	1	800	19153.9675	 0.0028	15.5085	16.3253	17.0419	17.3922	0
301	6	10	1	2	401.0161	56	1	800	19153.9675	 0.0028	17.4086	18.2252	18.9419	19.3444	0
301	6	11	1	2	346.9888	56	1	800	19153.9675	 0.0028	19.3586	20.1752	20.8919	21.2399	0
301	6	12	1	2	367.0745	56	1	800	19153.9675	 0.0028	21.2585	22.0752	22.7919	23.1600	0
301	6	13	1	2	394.8422	29	1	800	19153.9675	 0.0028	23.1752	23.9919	24.7085	25.1045	0
301	6	14	1	2	509.1910	29	1	800	19153.9675	 0.0028	25.1252	25.9418	26.6585	27.1687	0
301	6	15	1	2	322.3374	56	1	800	19153.9675	 0.0028	27.1752	27.9919	28.7086	29.0319	0
301	6	16	1	2	367.7454	29	1	800	19153.9675	 0.0028	29.0418	29.8586	30.5752	30.9440	0
301	6	17	1	2	443.7262	56	1	800	19153.9675	 0.0028	30.9585	31.7753	32.4919	32.9366	0
301	6	18	1	2	363.4673	29	1	800	19153.9675	 0.0028	32.9585	33.7752	34.4919	34.8564	0
301	6	19	1	2	406.4646	56	1	800	19153.9675	 0.0028	34.8752	35.6919	36.4085	36.8161	0
301	6	20	1	2	416.3992	29	1	800	19153.9675	 0.0028	36.8252	37.6419	38.3586	38.7761	0
301	6	21	1	2	699.5365	1	0	800	19153.9675	 0.0028	38.8086	39.6252	40.3420	41.0422	0
301	6	22	1	2	420.8801	56	1	800	19153.9675	 0.0028	 0.0127	 0.8294	 1.5460	 1.9679	0
301	6	23	1	2	462.1959	29	1	800	19153.9675	 0.0028	 1.9793	 2.7959	 3.5127	 3.9759	0
301	6	24	1	2	404.0252	29	1	800	19153.9675	 0.0028	 4.0294	 4.8460	 5.5626	 5.9677	0
301	6	25	1	2	422.1310	56	1	800	19153.9675	 0.0028	 5.9794	 6.7960	 7.5127	 7.9359	0
301	6	26	1	2	407.0560	56	1	800	19153.9675	 0.0028	 7.9460	 8.7626	 9.4794	 9.8878	0
301	6	27	1	2	337.4062	29	1	800	19153.9675	 0.0028	 9.8960	10.7127	11.4293	11.7678	0
301	6	28	1	2	397.7035	29	1	800	19153.9675	 0.0028	11.7793	12.5960	13.3127	13.7114	0
301	6	29	1	2	335.7957	56	1	800	19153.9675	 0.0028	13.7293	14.5461	15.2627	15.5996	0
301	6	30	1	2	372.3275	56	1	800	19153.9675	 0.0028	15.6126	16.4293	17.1460	17.5194	0
301	7	1	1	3	699.7096	1	0	800	19223.4836	 0.0007	 0.0163	 0.8330	 1.5496	 2.2501	0
301	7	2	1	3	489.3339	29	0	800	19223.4836	 0.0007	 0.0166	 0.8333	 1.5499	 2.0402	0
301	7	3	1	3	533.1361	29	1	800	19223.4836	 0.0007	 0.0122	 0.8289	 1.5456	 2.0799	0
301	7	4	1	3	482.3772	29	1	800	19223.4836	 0.0007	 2.0956	 2.9122	 3.6290	 4.1123	0
301	7	5	1	3	496.5128	29	1	800	19223.4836	 0.0007	 4.1289	 4.9456	 5.6623	 6.1599	0
301	7	6	1	3	350.3796	56	1	800	19223.4836	 0.0007	 6.1789	 6.9957	 7.7122	 8.0636	0
301	7	7	1	3	458.7624	29	0	800	19223.4836	 0.0007	 8.0789	 8.8956	 9.6123	10.0721	0
301	7	8	1	3	478.3697	29	1	800	19223.4836	 0.0007	 0.0110	 0.8277	 1.5444	 2.0239	0
301	7	9	1	3	309.6346	56	1	800	19223.4836	 0.0007	 2.0444	 2.8611	 3.5777	 3.8884	0
301	7	10	1	3	403.8711	29	1	800	19223.4836	 0.0007	 3.8944	 4.7111	 5.4278	 5.8326	0
301	7	11	1	3	429.4202	56	1	800	19223.4836	 0.0007	 5.8444	 6.6611	 7.3777	 7.8083	0
301	7	12	1	3	430.7035	56	1	800	19223.4836	 0.0007	 7.8278	 8.6445	 9.3611	 9.7929	0
301	7	1	2	3	448.6700	29	1	800	19223.4836	 0.0007	 0.0171	 0.8338	 1.5505	 2.0003	 9.7959
301	7	2	2	3	352.3096	56	1	800	19223.4836	 0.0007	 2.0171	 2.8338	 3.5504	 3.9038	 9.7959
301	7	3	2	3	325.1304	56	1	800	19223.4836	 0.0007	 3.9170	 4.7338	 5.4505	 5.7766	 9.7959
301	7	4	2	3	377.6572	56	1	800	19223.4836	 0.0007	 5.7837	 6.6004	 7.3172	 7.6960	 9.7959
301	7	5	2	3	292.7237	56	1	800	19223.4836	 0.0007	 7.7171	 8.5338	 9.2504	 9.5443	 9.7959
301	7	6	2	3	338.5156	56	1	800	19223.4836	 0.0007	 9.5671	10.3837	11.1005	11.4401	 9.7959
301	7	7	2	3	383.9967	56	1	800	19223.4836	 0.0007	11.4504	12.2671	12.9837	13.3695	 9.7959
301	7	8	2	3	370.1554	29	1	800	19223.4836	 0.0007	13.3838	14.2004	14.9171	15.2883	 9.7959
301	7	9	2	3	389.6282	56	1	800	19223.4836	 0.0007	15.3004	16.1171	16.8337	17.2244	 9.7959
301	7	10	2	3	328.3813	56	1	800	19223.4836	 0.0007	17.2337	18.0505	18.7671	19.0964	 9.7959
301	7	11	2	3	332.8582	56	1	800	19223.4836	 0.0007	19.1171	19.9338	20.6505	20.9843	 9.7959
301	7	12	2	3	361.1977	29	1	800	19223.4836	 0.0007	21.0004	21.8171	22.5338	22.8961	 9.7959
301	8	1	1	3	336.4958	56	1	800	19327.8184	 0.0024	 0.0091	 0.8257	 1.5425	 1.8801	0
301	8	2	1	3	389.7632	29	1	800	19327.8184	 0.0024	 1.8924	 2.7091	 3.4257	 3.8164	0
301	8	3	1	3	503.7491	29	1	800	19327.8184	 0.0024	 3.8257	 4.6425	 5.3592	 5.8640	0
301	8	4	1	3	478.6021	29	1	800	19327.8184	 0.0024	 5.8757	 6.6925	 7.4091	 7.8887	0
301	8	5	1	3	324.4711	56	1	800	19327.8184	 0.0024	 7.9091	 8.7258	 9.4425	 9.7681	0
301	8	6	1	3	377.6967	29	1	800	19327.8184	 0.0024	 9.7757	10.5925	11.3092	11.6879	0
301	8	7	1	3	492.3809	29	1	800	19327.8184	 0.0024	11.7091	12.5259	13.2425	13.7359	0
301	8	8	1	3	403.4524	29	1	800	19327.8184	 0.0024	13.7424	14.5591	15.2759	15.6804	0
301	8	9	1	3	396.9806	29	1	800	19327.8184	 0.0024	15.6924	16.5091	17.2258	17.6237	0
301	8	10	1	3	391.2532	29	1	800	19327.8184	 0.0024	17.6424	18.4590	19.1757	19.5681	0
301	8	11	1	3	353.6795	56	1	800	19327.8184	 0.0024	19.5757	20.3924	21.1092	21.4640	0
301	8	12	1	3	301.6872	56	1	800	19327.8184	 0.0024	21.4757	22.2924	23.0091	23.3118	0
301	8	13	1	3	315.8622	56	1	800	19327.8184	 0.0024	23.3257	24.1425	24.8591	25.1761	0
301	8	14	1	3	289.1475	56	1	800	19327.8184	 0.0024	25.1924	26.0091	26.7259	27.0162	0
301	8	15	1	3	344.4716	29	1	800	19327.8184	 0.0024	27.0257	27.8425	28.5592	28.9047	0
301	8	16	1	3	403.8020	29	1	800	19327.8184	 0.0024	28.9259	29.7425	30.4591	30.8639	0
301	8	17	1	3	302.0169	56	1	800	19327.8184	 0.0024	30.8758	31.6924	32.4093	32.7124	0
301	8	18	1	3	324.5565	56	1	800	19327.8184	 0.0024	32.7257	33.5424	34.2591	34.5846	0
301	8	19	1	3	297.6866	56	1	800	19327.8184	 0.0024	34.5924	35.4092	36.1258	36.4244	0
301	8	20	1	3	351.1294	29	1	800	19327.8184	 0.0024	36.4424	37.2591	37.9758	38.3279	0
301	8	21	1	3	339.0097	56	1	800	19327.8184	 0.0024	38.3424	39.1592	39.8758	40.2158	0
301	8	22	1	3	344.1627	29	1	800	19327.8184	 0.0024	40.2257	41.0425	41.7591	42.1044	0
301	8	23	1	3	308.2068	56	1	800	19327.8184	 0.0024	42.1257	42.9424	43.6591	43.9685	0
301	8	24	1	3	337.6399	56	1	800	19327.8184	 0.0024	43.9757	44.7924	45.5092	45.8478	0
301	8	25	1	3	342.3869	56	1	800	19327.8184	 0.0024	45.8590	46.6758	47.3925	47.7363	0
301	8	26	1	3	411.4112	29	1	800	19327.8184	 0.0024	47.7424	48.5591	49.2758	49.6883	0
301	8	27	1	3	388.5128	56	1	800	19327.8184	 0.0024	49.7091	50.5258	51.2424	51.6320	0
301	8	28	1	3	415.8506	29	1	800	19327.8184	 0.0024	51.6424	52.4591	53.1757	53.5926	0
301	8	29	1	3	313.2448	56	1	800	19327.8184	 0.0024	53.6091	54.4258	55.1424	55.4566	0
301	8	30	1	3	373.7657	29	1	800	19327.8184	 0.0024	55.4758	56.2925	57.0090	57.3838	0
301	9	1	1	3	486.1613	29	1	800	19393.4340	 0.0009	 0.0117	 0.8284	 1.5450	 2.0323	0
301	9	2	1	3	420.2979	29	1	800	19393.4340	 0.0009	 2.0451	 2.8617	 3.5784	 3.9998	0
301	9	3	1	3	700.0181	1	0	800	19393.4340	 0.0009	 4.0116	 4.8283	 5.5451	 6.2459	0
301	9	4	1	3	414.3441	56	1	800	19393.4340	 0.0009	 0.0109	 0.8277	 1.5444	 1.9598	0
301	9	5	1	3	447.6734	29	1	800	19393.4340	 0.0009	 1.9776	 2.7944	 3.5110	 3.9598	0
301	9	6	1	3	504.4454	29	1	800	19393.4340	 0.0009	 3.9776	 4.7944	 5.5110	 6.0164	0
301	9	7	1	3	699.9735	1	0	800	19393.4340	 0.0009	 6.0276	 6.8442	 7.5610	 8.2617	0
301	9	8	1	3	358.1248	56	1	800	19393.4340	 0.0009	 0.0194	 0.8361	 1.5528	 1.9120	0
301	9	9	1	3	378.3872	56	1	800	19393.4340	 0.0009	 1.9194	 2.7361	 3.4527	 3.8320	0
301	9	10	1	3	356.5423	29	1	800	19393.4340	 0.0009	 3.8527	 4.6694	 5.3861	 5.7437	0
301	9	11	1	3	288.3233	56	1	800	19393.4340	 0.0009	 5.7527	 6.5695	 7.2861	 7.5755	0
301	9	12	1	3	343.4759	29	1	800	19393.4340	 0.0009	 7.5861	 8.4028	 9.1195	 9.4640	0
301	9	1	2	3	373.5846	56	1	800	19393.4340	 0.0009	 0.0038	 0.8205	 1.5371	 1.9118	 9.4676
301	9	2	2	3	440.4875	29	1	800	19393.4340	 0.0009	 1.9204	 2.7372	 3.4538	 3.8953	 9.4676
301	9	3	2	3	505.8865	29	1	800	19393.4340	 0.0009	 3.9037	 4.7204	 5.4371	 5.9440	 9.4676
301	9	4	2	3	471.0782	29	1	800	19393.4340	 0.0009	 5.9537	 6.7705	 7.4871	 7.9594	 9.4676
301	9	5	2	3	358.4840	56	1	800	19393.4340	 0.0009	 7.9704	 8.7871	 9.5038	 9.8634	 9.4676
301	9	6	2	3	386.8503	56	1	800	19393.4340	 0.0009	 9.8704	10.6871	11.4038	11.7918	 9.4676
301	9	7	2	3	373.8279	29	1	800	19393.4340	 0.0009	11.8038	12.6205	13.3372	13.7120	 9.4676
301	9	8	2	3	408.7960	56	1	800	19393.4340	 0.0009	13.7204	14.5372	15.2539	15.6638	 9.4676
301	9	9	2	3	443.2069	29	1	800	19393.4340	 0.0009	15.6704	16.4871	17.2038	17.6481	 9.4676
301	9	10	2	3	419.1733	29	1	800	19393.4340	 0.0009	17.6537	18.4704	19.1872	19.6075	 9.4676
301	9	11	2	3	365.1659	56	1	800	19393.4340	 0.0009	19.6204	20.4372	21.1538	21.5203	 9.4676
301	9	12	2	3	423.5601	56	1	800	19393.4340	 0.0009	21.5371	22.3538	23.0705	23.4952	 9.4676
301	10	1	1	4	461.0130	29	1	800	19523.4676	 0.0023	 0.0118	 0.8285	 1.5452	 2.0072	0
301	10	2	1	4	332.2761	56	1	800	19523.4676	 0.0023	 2.0285	 2.8452	 3.5618	 3.8952	0
301	10	3	1	4	337.7572	56	1	800	19523.4676	 0.0023	 3.9118	 4.7285	 5.4452	 5.7839	0
301	10	4	1	4	357.7933	56	1	800	19523.4676	 0.0023	 5.7952	 6.6118	 7.3285	 7.6874	0
301	10	5	1	4	337.8113	56	1	800	19523.4676	 0.0023	 7.6951	 8.5119	 9.2285	 9.5674	0
301	10	6	1	4	318.4106	56	1	800	19523.4676	 0.0023	 9.5784	10.3953	11.1118	11.4313	0
301	10	7	1	4	364.2701	29	1	800	19523.4676	 0.0023	11.4451	12.2618	12.9785	13.3438	0
301	10	8	1	4	327.7985	29	1	800	19523.4676	 0.0023	13.3618	14.1785	14.8951	15.2240	0
301	10	9	1	4	300.6628	56	1	800	19523.4676	 0.0023	15.2451	16.0619	16.7784	17.0801	0
301	10	10	1	4	329.6758	56	1	800	19523.4676	 0.0023	17.0951	17.9118	18.6285	18.9594	0
301	10	11	1	4	351.3216	29	1	800	19523.4676	 0.0023	18.9785	19.7951	20.5118	20.8641	0
301	10	12	1	4	458.4919	29	1	800	19523.4676	 0.0023	20.8784	21.6952	22.4118	22.8714	0
301	10	13	1	4	355.2473	29	1	800	19523.4676	 0.0023	22.8784	23.6951	24.4118	24.7681	0
301	10	14	1	4	390.4477	56	1	800	19523.4676	 0.0023	24.7784	25.5951	26.3119	26.7038	0
301	10	15	1	4	361.7302	29	1	800	19523.4676	 0.0023	26.7119	27.5285	28.2452	28.6079	0
301	10	16	1	4	324.9627	56	1	800	19523.4676	 0.0023	28.6284	29.4451	30.1618	30.4878	0
301	10	17	1	4	370.5310	56	1	800	19523.4676	 0.0023	30.4951	31.3118	32.0285	32.4000	0
301	10	18	1	4	285.4352	56	1	800	19523.4676	 0.0023	32.4118	33.2285	33.9452	34.2318	0
301	10	19	1	4	323.7230	29	1	800	19523.4676	 0.0023	34.2451	35.0618	35.7785	36.1032	0
301	10	20	1	4	289.4218	56	1	800	19523.4676	 0.0023	36.1118	36.9285	37.6452	37.9357	0
301	10	21	1	4	304.5466	56	1	800	19523.4676	 0.0023	37.9451	38.7618	39.4785	39.7843	0
301	10	22	1	4	341.9037	56	1	800	19523.4676	 0.0023	39.7951	40.6117	41.3285	41.6717	0
301	10	23	1	4	314.4735	56	1	800	19523.4676	 0.0023	41.6784	42.4952	43.2118	43.5273	0
301	10	24	1	4	311.6811	56	1	800	19523.4676	 0.0023	43.5452	44.3618	45.0785	45.3912	0
301	10	25	1	4	341.0243	56	1	800	19523.4676	 0.0023	45.4118	46.2285	46.9452	47.2873	0
301	10	26	1	4	282.0516	56	1	800	19523.4676	 0.0023	47.2951	48.1119	48.8286	49.1117	0
301	10	27	1	4	336.4610	56	1	800	19523.4676	 0.0023	49.1284	49.9452	50.6619	50.9994	0
301	10	28	1	4	293.0784	56	1	800	19523.4676	 0.0023	51.0118	51.8285	52.5452	52.8399	0
301	10	29	1	4	547.7217	29	1	800	19523.4676	 0.0023	52.8618	53.6785	54.3952	54.9440	0
301	10	30	1	4	295.7618	56	1	800	19523.4676	 0.0023	54.9618	55.7785	56.4951	56.7919	0
301	11	1	1	4	449.6377	29	1	800	19591.8673	 0.0020	 0.0154	 0.8321	 1.5488	 1.9995	0
301	11	2	1	4	394.3679	56	1	800	19591.8673	 0.0020	 2.0154	 2.8321	 3.5489	 3.9441	0
301	11	3	1	4	315.7089	56	1	800	19591.8673	 0.0020	 3.9654	 4.7822	 5.4988	 5.8156	0
301	11	4	1	4	393.8377	29	1	800	19591.8673	 0.0020	 5.8321	 6.6488	 7.3655	 7.7603	0
301	11	5	1	4	347.8450	56	1	800	19591.8673	 0.0020	 7.7821	 8.5988	 9.3155	 9.6643	0
301	11	6	1	4	327.1084	29	1	800	19591.8673	 0.0020	 9.6821	10.4987	11.2155	11.5436	0
301	11	7	1	4	307.8663	56	1	800	19591.8673	 0.0020	11.5654	12.3821	13.0987	13.4077	0
301	11	8	1	4	393.7365	29	1	800	19591.8673	 0.0020	13.4154	14.2322	14.9488	15.3436	0
301	11	9	1	4	292.2168	56	1	800	19591.8673	 0.0020	15.3655	16.1821	16.8988	17.1923	0
301	11	10	1	4	362.3699	29	1	800	19591.8673	 0.0020	17.1987	18.0154	18.7322	19.0957	0
301	11	11	1	4	350.1628	29	1	800	19591.8673	 0.0020	19.1155	19.9321	20.6488	21.0001	0
301	11	12	1	4	354.5253	29	1	800	19591.8673	 0.0020	21.0154	21.8321	22.5488	22.9043	0
301	12	1	1	4	437.8795	29	1	800	19637.3502	 0.0007	 0.0119	 0.8286	 1.5454	 1.9845	0
301	12	2	1	4	327.2118	29	1	800	19637.3502	 0.0007	 1.9953	 2.8120	 3.5287	 3.8569	0
301	12	3	1	4	315.0982	29	1	800	19637.3502	 0.0007	 3.8786	 4.6954	 5.4120	 5.7282	0
301	12	4	1	4	425.0810	29	1	800	19637.3502	 0.0007	 5.7453	 6.5620	 7.2786	 7.7046	0
301	12	5	1	4	401.9799	29	1	800	19637.3502	 0.0007	 7.7119	 8.5286	 9.2453	 9.6483	0
301	12	6	1	4	371.9702	29	1	800	19637.3502	 0.0007	 9.6619	10.4786	11.1953	11.5684	0
301	12	7	1	4	311.0006	56	1	800	19637.3502	 0.0007	11.5786	12.3954	13.1120	13.4241	0
301	12	8	1	4	364.7113	29	1	800	19637.3502	 0.0007	13.4453	14.2620	14.9787	15.3445	0
301	12	9	1	4	304.5096	56	1	800	19637.3502	 0.0007	15.3620	16.1786	16.8953	17.2009	0
301	12	10	1	4	350.6182	56	1	800	19637.3502	 0.0007	17.2119	18.0286	18.7452	19.0969	0
301	12	11	1	4	297.6169	56	1	800	19637.3502	 0.0007	19.1120	19.9287	20.6453	20.9440	0
301	12	12	1	4	335.6493	29	1	800	19637.3502	 0.0007	20.9619	21.7786	22.4953	22.8320	0
301	12	13	1	4	324.7131	56	1	800	19637.3502	 0.0007	22.8453	23.6620	24.3787	24.7044	0
301	12	14	1	4	466.0272	29	1	800	19637.3502	 0.0007	24.7119	25.5287	26.2454	26.7125	0
301	12	15	1	4	353.3559	29	1	800	19637.3502	 0.0007	26.7286	27.5453	28.2621	28.6165	0
301	12	16	1	4	317.5260	29	1	800	19637.3502	 0.0007	28.6286	29.4452	30.1619	30.4806	0
301	12	17	1	4	466.3741	29	1	800	19637.3502	 0.0007	30.4953	31.3119	32.0287	32.4961	0
301	12	18	1	4	354.1479	56	1	800	19637.3502	 0.0007	32.5119	33.3286	34.0453	34.4005	0
301	12	19	1	4	421.7263	56	1	800	19637.3502	 0.0007	34.4119	35.2286	35.9453	36.3681	0
301	12	20	1	4	407.0919	56	1	800	19637.3502	 0.0007	36.3786	37.1953	37.9119	38.3201	0
301	12	21	1	4	345.1951	29	1	800	19637.3502	 0.0007	38.3286	39.1453	39.8619	40.2082	0
301	12	22	1	4	437.7165	29	1	800	19637.3502	 0.0007	40.2286	41.0453	41.7620	42.2007	0
301	12	23	1	4	501.7412	56	1	800	19637.3502	 0.0007	42.2119	43.0287	43.7452	44.2480	0
301	12	24	1	4	300.2826	56	1	800	19637.3502	 0.0007	44.2619	45.0787	45.7954	46.0967	0
301	12	25	1	4	361.8419	56	1	800	19637.3502	 0.0007	46.1120	46.9287	47.6453	48.0084	0
301	12	26	1	4	453.3384	29	1	800	19637.3502	 0.0007	48.0286	48.8454	49.5620	50.0164	0
301	12	27	1	4	301.4997	56	1	800	19637.3502	 0.0007	50.0287	50.8453	51.5619	51.8645	0
301	12	28	1	4	411.0209	56	1	800	19637.3502	 0.0007	51.8786	52.6952	53.4119	53.8239	0
301	12	29	1	4	348.2747	56	1	800	19637.3502	 0.0007	53.8453	54.6619	55.3787	55.7282	0
301	12	30	1	4	289.1920	56	1	800	19637.3502	 0.0007	55.7453	56.5619	57.2786	57.5688	0
301	13	1	1	5	339.4371	56	1	800	19698.2836	 0.0007	 0.0068	 0.8235	 1.5401	 1.8809	0
301	13	2	1	5	567.7845	29	1	800	19698.2836	 0.0007	 1.8900	 2.7068	 3.4235	 3.9923	0
301	13	3	1	5	346.6993	56	1	800	19698.2836	 0.0007	 4.0067	 4.8235	 5.5401	 5.8879	0
301	13	4	1	5	375.1492	56	1	800	19698.2836	 0.0007	 5.9068	 6.7235	 7.4401	 7.8162	0
301	13	5	1	5	362.4760	56	1	800	19698.2836	 0.0007	 7.8234	 8.6401	 9.3568	 9.7202	0
301	13	6	1	5	309.8360	56	1	800	19698.2836	 0.0007	 9.7401	10.5567	11.2734	11.5843	0
301	13	7	1	5	467.7427	29	1	800	19698.2836	 0.0007	11.5900	12.4069	13.1235	13.5921	0
301	13	8	1	5	290.4624	56	1	800	19698.2836	 0.0007	13.6068	14.4234	15.1401	15.4316	0
301	13	9	1	5	281.5920	56	1	800	19698.2836	 0.0007	15.4401	16.2568	16.9735	17.2561	0
301	13	10	1	5	343.6634	56	1	800	19698.2836	 0.0007	17.2734	18.0901	18.8068	19.1516	0
301	13	11	1	5	355.7259	56	1	800	19698.2836	 0.0007	19.1734	19.9901	20.7068	21.0636	0
301	13	12	1	5	295.9903	56	1	800	19698.2836	 0.0007	21.0734	21.8901	22.6068	22.9038	0
301	14	1	1	5	318.3436	56	1	800	19732.1838	 0.0019	 0.0034	 0.8201	 1.5367	 1.8561	0
301	14	2	1	5	419.9088	29	1	800	19732.1838	 0.0019	 1.8701	 2.6868	 3.4033	 3.8243	0
301	14	3	1	5	285.4376	56	1	800	19732.1838	 0.0019	 3.8368	 4.6534	 5.3700	 5.6565	0
301	14	4	1	5	427.7562	29	1	800	19732.1838	 0.0019	 5.6700	 6.4868	 7.2033	 7.6341	0
301	14	5	1	5	388.3596	29	1	800	19732.1838	 0.0019	 7.6534	 8.4700	 9.1867	 9.5761	0
301	14	6	1	5	495.5444	56	1	800	19732.1838	 0.0019	 9.5867	10.4035	11.1200	11.6166	0
301	14	7	1	5	301.1839	56	1	800	19732.1838	 0.0019	11.6368	12.4534	13.1700	13.4723	0
301	14	8	1	5	347.0102	29	0	800	19732.1838	 0.0019	13.4867	14.3034	15.0202	15.3682	0
301	14	9	1	5	369.3051	56	1	800	19732.1838	 0.0019	 0.0086	 0.8254	 1.5420	 1.9123	0
301	14	10	1	5	524.3775	29	1	800	19732.1838	 0.0019	 1.9252	 2.7421	 3.4586	 3.9840	0
301	14	11	1	5	329.7339	56	1	800	19732.1838	 0.0019	 3.9919	 4.8086	 5.5253	 5.8561	0
301	14	12	1	5	326.2685	56	1	800	19732.1838	 0.0019	 5.8752	 6.6920	 7.4086	 7.7361	0
301	14	13	1	5	388.4753	29	1	800	19732.1838	 0.0019	 7.7419	 8.5586	 9.2753	 9.6648	0
301	14	14	1	5	423.1623	29	1	800	19732.1838	 0.0019	 9.6752	10.4919	11.2086	11.6328	0
301	14	15	1	5	552.5337	29	1	800	19732.1838	 0.0019	11.6419	12.4586	13.1753	13.7289	0
301	14	16	1	5	331.7656	56	1	800	19732.1838	 0.0019	13.7419	14.5586	15.2752	15.6081	0
301	14	17	1	5	328.3804	56	1	800	19732.1838	 0.0019	15.6253	16.4420	17.1586	17.4880	0
301	14	18	1	5	373.3769	29	1	800	19732.1838	 0.0019	17.5086	18.3253	19.0420	19.4164	0
301	14	19	1	5	336.2625	56	1	800	19732.1838	 0.0019	19.4252	20.2420	20.9587	21.2959	0
301	14	20	1	5	326.1595	56	1	800	19732.1838	 0.0019	21.3085	22.1253	22.8419	23.1693	0
301	14	21	1	5	361.7335	29	1	800	19732.1838	 0.0019	23.1920	24.0087	24.7253	25.0881	0
301	14	22	1	5	333.4926	56	1	800	19732.1838	 0.0019	25.1086	25.9253	26.6420	26.9766	0
301	14	23	1	5	378.0429	29	1	800	19732.1838	 0.0019	26.9919	27.8086	28.5252	28.9045	0
301	14	24	1	5	332.7901	56	1	800	19732.1838	 0.0019	28.9252	29.7420	30.4587	30.7927	0
301	14	25	1	5	385.1120	56	1	800	19732.1838	 0.0019	30.8086	31.6252	32.3420	32.7282	0
301	14	26	1	5	339.7630	56	1	800	19732.1838	 0.0019	32.7419	33.5586	34.2753	34.6162	0
301	14	27	1	5	321.1457	56	1	800	19732.1838	 0.0019	34.6253	35.4419	36.1586	36.4808	0
301	14	28	1	5	341.7507	56	1	800	19732.1838	 0.0019	36.4919	37.3086	38.0253	38.3681	0
301	14	29	1	5	602.5090	29	1	800	19732.1838	 0.0019	38.3752	39.1919	39.9086	40.5122	0
301	14	30	1	5	581.1877	56	0	800	19732.1838	 0.0019	40.5252	41.3420	42.0586	42.6408	0
301	15	1	1	5	304.5411	56	1	800	19794.2837	 0.0018	 0.0165	 0.8331	 1.5497	 1.8556	0
301	15	2	1	5	350.9050	56	1	800	19794.2837	 0.0018	 1.8664	 2.6831	 3.3997	 3.7517	0
301	15	3	1	5	443.3188	29	1	800	19794.2837	 0.0018	 3.7664	 4.5831	 5.2998	 5.7442	0
301	15	4	1	5	458.4264	29	0	800	19794.2837	 0.0018	 5.7664	 6.5831	 7.2997	 7.7594	0
301	15	5	1	5	502.8180	29	1	800	19794.2837	 0.0018	 0.0105	 0.8272	 1.5440	 2.0478	0
301	15	6	1	5	397.0374	56	1	800	19794.2837	 0.0018	 2.0605	 2.8772	 3.5938	 3.9918	0
301	15	7	1	5	431.5654	29	1	800	19794.2837	 0.0018	 4.0105	 4.8272	 5.5439	 5.9767	0
301	15	8	1	5	447.0621	29	0	800	19794.2837	 0.0018	 5.9938	 6.8105	 7.5272	 7.9757	0
301	15	9	1	5	699.5091	1	0	800	19794.2837	 0.0018	 0.0178	 0.8345	 1.5512	 2.2515	0
301	15	10	1	5	425.1335	56	1	800	19794.2837	 0.0018	 0.0159	 0.8327	 1.5493	 1.9758	0
301	15	11	1	5	370.6659	56	1	800	19794.2837	 0.0018	 1.9826	 2.7993	 3.5160	 3.8878	0
301	15	12	1	5	357.7169	29	1	800	19794.2837	 0.0018	 3.8992	 4.7160	 5.4327	 5.7916	0
301	15	1	2	5	331.8049	56	1	800	19794.2837	 0.0018	 0.0056	 0.8224	 1.5390	 1.8718	 5.7945
301	15	2	2	5	328.5831	56	1	800	19794.2837	 0.0018	 1.8889	 2.7056	 3.4223	 3.7520	 5.7945
301	15	3	2	5	429.4463	29	1	800	19794.2837	 0.0018	 3.7722	 4.5889	 5.3056	 5.7362	 5.7945
301	15	4	2	5	334.2072	56	1	800	19794.2837	 0.0018	 5.7556	 6.5723	 7.2889	 7.6242	 5.7945
301	15	5	2	5	386.2902	29	1	800	19794.2837	 0.0018	 7.6389	 8.4556	 9.1723	 9.5596	 5.7945
301	15	6	2	5	381.8812	56	1	800	19794.2837	 0.0018	 9.5722	10.3889	11.1056	11.4885	 5.7945
301	15	7	2	5	463.9109	29	1	800	19794.2837	 0.0018	11.5056	12.3223	13.0390	13.5040	 5.7945
301	15	8	2	5	335.4601	56	1	800	19794.2837	 0.0018	13.5223	14.3390	15.0555	15.3921	 5.7945
301	15	9	2	5	467.8161	29	1	800	19794.2837	 0.0018	15.4056	16.2223	16.9390	17.4078	 5.7945
301	15	10	2	5	347.7860	56	1	800	19794.2837	 0.0018	17.4222	18.2390	18.9556	19.3044	 5.7945
301	15	11	2	5	335.0504	56	1	800	19794.2837	 0.0018	19.3223	20.1389	20.8556	21.1917	 5.7945
301	15	12	2	5	443.7417	29	1	800	19794.2837	 0.0018	21.2056	22.0223	22.7390	23.1838	 5.7945
301	16	1	1	6	478.5129	29	1	800	19866.8503	 0.0007	 0.0030	 0.8198	 1.5365	 2.0160	0
301	16	2	1	6	301.2651	56	1	800	19866.8503	 0.0007	 2.0364	 2.8531	 3.5698	 3.8721	0
301	16	3	1	6	427.5591	56	1	800	19866.8503	 0.0007	 3.8864	 4.7031	 5.4197	 5.8483	0
301	16	4	1	6	492.6180	29	1	800	19866.8503	 0.0007	 5.8697	 6.6865	 7.4031	 7.8969	0
301	16	5	1	6	530.4985	29	1	800	19866.8503	 0.0007	 7.9030	 8.7198	 9.4364	 9.9680	0
301	16	6	1	6	335.0066	56	1	800	19866.8503	 0.0007	 9.9864	10.8030	11.5198	11.8560	0
301	16	7	1	6	339.6512	56	1	800	19866.8503	 0.0007	11.8697	12.6865	13.4031	13.7438	0
301	16	8	1	6	368.3381	29	1	800	19866.8503	 0.0007	13.7530	14.5697	15.2864	15.6559	0
301	16	9	1	6	332.6217	56	1	800	19866.8503	 0.0007	15.6697	16.4864	17.2031	17.5367	0
301	16	10	1	6	368.6437	56	1	800	19866.8503	 0.0007	17.5530	18.3698	19.0865	19.4561	0
301	16	11	1	6	355.7959	56	1	800	19866.8503	 0.0007	19.4697	20.2864	21.0031	21.3600	0
301	16	12	1	6	439.7348	29	1	800	19866.8503	 0.0007	21.3697	22.1865	22.9032	23.3444	0
301	16	13	1	6	320.4194	56	1	800	19866.8503	 0.0007	23.3530	24.1697	24.8865	25.2079	0
301	16	14	1	6	334.5931	56	1	800	19866.8503	 0.0007	25.2197	26.0364	26.7531	27.0889	0
301	16	15	1	6	410.3650	29	1	800	19866.8503	 0.0007	27.1030	27.9197	28.6364	29.0478	0
301	16	16	1	6	339.8223	56	1	800	19866.8503	 0.0007	29.0698	29.8865	30.6031	30.9439	0
301	16	17	1	6	312.8332	56	1	800	19866.8503	 0.0007	30.9531	31.7697	32.4865	32.8004	0
301	16	18	1	6	381.8527	56	1	800	19866.8503	 0.0007	32.8197	33.6365	34.3531	34.7361	0
301	16	19	1	6	360.4037	29	1	800	19866.8503	 0.0007	34.7530	35.5697	36.2864	36.6478	0
301	16	20	1	6	315.7630	56	1	800	19866.8503	 0.0007	36.6697	37.4864	38.2031	38.5199	0
301	16	21	1	6	433.1269	56	1	800	19866.8503	 0.0007	38.5364	39.3531	40.0698	40.5040	0
301	16	22	1	6	321.6952	56	1	800	19866.8503	 0.0007	40.5197	41.3364	42.0531	42.3759	0
301	16	23	1	6	302.8999	56	1	800	19866.8503	 0.0007	42.3864	43.2032	43.9198	44.2242	0
301	16	24	1	6	357.6949	56	1	800	19866.8503	 0.0007	44.2364	45.0531	45.7698	46.1287	0
301	16	25	1	6	305.1451	56	1	800	19866.8503	 0.0007	46.1364	46.9531	47.6697	47.9759	0
301	16	26	1	6	279.8365	56	1	800	19866.8503	 0.0007	47.9864	48.8032	49.5198	49.8006	0
301	16	27	1	6	453.7049	29	1	800	19866.8503	 0.0007	49.8198	50.6364	51.3531	51.8078	0
301	16	28	1	6	389.8398	56	1	800	19866.8503	 0.0007	51.8197	52.6364	53.3531	53.7440	0
301	16	29	1	6	320.5627	56	1	800	19866.8503	 0.0007	53.7530	54.5698	55.2864	55.6081	0
301	16	30	1	6	365.9881	56	1	800	19866.8503	 0.0007	55.6197	56.4364	57.1530	57.5201	0
301	17	1	1	6	361.8651	29	1	800	19935.7843	 0.0020	 0.0076	 0.8243	 1.5410	 1.9039	0
301	17	2	1	6	493.1144	29	1	800	19935.7843	 0.0020	 1.9243	 2.7409	 3.4577	 3.9519	0
301	17	3	1	6	395.3469	56	1	800	19935.7843	 0.0020	 3.9743	 4.7910	 5.5077	 5.9041	0
301	17	4	1	6	477.0926	29	1	800	19935.7843	 0.0020	 5.9245	 6.7410	 7.4577	 7.9360	0
301	17	5	1	6	395.7494	56	1	800	19935.7843	 0.0020	 7.9576	 8.7743	 9.4909	 9.8878	0
301	17	6	1	6	422.4737	29	1	800	19935.7843	 0.0020	 9.9076	10.7244	11.4410	11.8645	0
301	17	7	1	6	335.1854	56	1	800	19935.7843	 0.0020	11.8743	12.6910	13.4076	13.7439	0
301	17	8	1	6	355.8732	56	1	800	19935.7843	 0.0020	13.7576	14.5744	15.2910	15.6479	0
301	17	9	1	6	312.1241	56	1	800	19935.7843	 0.0020	15.6576	16.4743	17.1909	17.5042	0
301	17	10	1	6	317.1870	56	1	800	19935.7843	 0.0020	17.5243	18.3410	19.0577	19.3761	0
301	17	11	1	6	314.5384	29	1	800	19935.7843	 0.0020	19.3909	20.2077	20.9243	21.2399	0
301	17	12	1	6	367.8323	29	1	800	19935.7843	 0.0020	21.2576	22.0743	22.7911	23.1599	0
301	18	1	1	6	379.4632	29	1	800	19972.2670	 0.0007	 0.0135	 0.8303	 1.5469	 1.9274	0
301	18	2	1	6	301.9351	56	1	800	19972.2670	 0.0007	 1.9469	 2.7636	 3.4802	 3.7833	0
301	18	3	1	6	324.4445	56	1	800	19972.2670	 0.0007	 3.7969	 4.6136	 5.3303	 5.6557	0
301	18	4	1	6	353.8738	56	1	800	19972.2670	 0.0007	 5.6635	 6.4803	 7.1969	 7.5519	0
301	18	5	1	6	372.9609	29	1	800	19972.2670	 0.0007	 7.5635	 8.3803	 9.0969	 9.4713	0
301	18	6	1	6	376.4150	29	1	800	19972.2670	 0.0007	 9.4802	10.2969	11.0136	11.3911	0
301	18	7	1	6	443.8771	29	1	800	19972.2670	 0.0007	11.4135	12.2302	12.9469	13.3918	0
301	18	8	1	6	379.1837	29	1	800	19972.2670	 0.0007	13.4135	14.2303	14.9470	15.3273	0
301	18	9	1	6	493.9199	56	1	800	19972.2670	 0.0007	15.3469	16.1636	16.8802	17.3752	0
301	18	10	1	6	331.6749	56	1	800	19972.2670	 0.0007	17.3969	18.2136	18.9303	19.2630	0
301	18	11	1	6	384.6301	29	1	800	19972.2670	 0.0007	19.2802	20.0969	20.8136	21.1993	0
301	18	12	1	6	426.9703	56	1	800	19972.2670	 0.0007	21.2135	22.0302	22.7469	23.1749	0
301	18	13	1	6	395.7095	56	1	800	19972.2670	 0.0007	23.1969	24.0136	24.7302	25.1270	0
301	18	14	1	6	374.1402	29	1	800	19972.2670	 0.0007	25.1469	25.9636	26.6802	27.0555	0
301	18	15	1	6	369.1219	56	1	800	19972.2670	 0.0007	27.0635	27.8802	28.5970	28.9672	0
301	18	16	1	6	389.0097	29	1	800	19972.2670	 0.0007	28.9802	29.7969	30.5136	30.9036	0
301	18	17	1	6	535.7359	29	1	800	19972.2670	 0.0007	30.9135	31.7303	32.4468	32.9835	0
301	18	18	1	6	324.4345	56	1	800	19972.2670	 0.0007	32.9968	33.8136	34.5302	34.8556	0
301	18	19	1	6	313.1742	56	1	800	19972.2670	 0.0007	34.8635	35.6802	36.3970	36.7113	0
301	18	20	1	6	335.0659	56	1	800	19972.2670	 0.0007	36.7302	37.5470	38.2636	38.5996	0
301	18	21	1	6	403.0212	29	1	800	19972.2670	 0.0007	38.6135	39.4302	40.1469	40.5512	0
301	18	22	1	6	317.1969	56	1	800	19972.2670	 0.0007	40.5635	41.3803	42.0970	42.4153	0
301	18	23	1	6	307.1437	56	1	800	19972.2670	 0.0007	42.4302	43.2470	43.9636	44.2717	0
301	18	24	1	6	417.0696	29	1	800	19972.2670	 0.0007	44.2802	45.0969	45.8136	46.2316	0
301	18	25	1	6	289.7927	56	1	800	19972.2670	 0.0007	46.2469	47.0635	47.7802	48.0711	0
301	18	26	1	6	384.4047	29	1	800	19972.2670	 0.0007	48.0802	48.8969	49.6136	49.9990	0
301	18	27	1	6	483.1551	29	1	800	19972.2670	 0.0007	50.0135	50.8303	51.5468	52.0310	0
301	18	28	1	6	322.5103	56	1	800	19972.2670	 0.0007	52.0468	52.8636	53.5803	53.9038	0
301	18	29	1	6	399.4452	56	1	800	19972.2670	 0.0007	53.9135	54.7303	55.4469	55.8477	0
301	18	30	1	6	377.4847	29	1	800	19972.2670	 0.0007	55.8635	56.6802	57.3968	57.7756	0
301	19	1	1	7	407.2554	56	1	800	20041.0003	 0.0009	 0.0191	 0.8357	 1.5523	 1.9606	0
301	19	2	1	7	376.8192	29	1	800	20041.0003	 0.0009	 1.9690	 2.7857	 3.5024	 3.8803	0
301	19	3	1	7	587.3331	29	1	800	20041.0003	 0.0009	 3.9024	 4.7191	 5.4358	 6.0243	0
301	19	4	1	7	699.7003	1	0	800	20041.0003	 0.0009	 6.0357	 6.8525	 7.5691	 8.2695	0
301	19	5	1	7	340.5395	56	1	800	20041.0003	 0.0009	 0.0133	 0.8300	 1.5467	 1.8884	0
301	19	6	1	7	369.4384	29	1	800	20041.0003	 0.0009	 1.8966	 2.7134	 3.4301	 3.8007	0
301	19	7	1	7	357.3599	56	1	800	20041.0003	 0.0009	 3.8133	 4.6300	 5.3466	 5.7051	0
301	19	8	1	7	400.4188	29	1	800	20041.0003	 0.0009	 5.7133	 6.5300	 7.2467	 7.6483	0
301	19	9	1	7	339.0600	29	1	800	20041.0003	 0.0009	 7.6633	 8.4801	 9.1968	 9.5369	0
301	19	10	1	7	423.7244	56	1	800	20041.0003	 0.0009	 9.5466	10.3634	11.0800	11.5051	0
301	19	11	1	7	352.4419	56	1	800	20041.0003	 0.0009	11.5133	12.3300	13.0467	13.4002	0
301	19	12	1	7	300.7903	29	1	800	20041.0003	 0.0009	13.4133	14.2300	14.9467	15.2486	0
301	19	1	2	7	456.4310	29	1	800	20041.0003	 0.0009	 0.0093	 0.8260	 1.5427	 2.0001	15.2515
301	19	2	2	7	367.8692	56	1	800	20041.0003	 0.0009	 2.0092	 2.8260	 3.5427	 3.9119	15.2515
301	19	3	2	7	338.8905	56	1	800	20041.0003	 0.0009	 3.9259	 4.7427	 5.4594	 5.7993	15.2515
301	19	4	2	7	344.4923	56	1	800	20041.0003	 0.0009	 5.8093	 6.6260	 7.3427	 7.6882	15.2515
301	19	5	2	7	324.4395	56	1	800	20041.0003	 0.0009	 7.7093	 8.5260	 9.2426	 9.5680	15.2515
301	19	6	2	7	321.1495	56	1	800	20041.0003	 0.0009	 9.5760	10.3926	11.1093	11.4316	15.2515
301	19	7	2	7	382.4318	56	1	800	20041.0003	 0.0009	11.4426	12.2592	12.9760	13.3594	15.2515
301	19	8	2	7	297.2488	56	1	800	20041.0003	 0.0009	13.3759	14.1927	14.9092	15.2076	15.2515
301	19	9	2	7	335.1429	29	1	800	20041.0003	 0.0009	15.2259	16.0426	16.7592	17.0958	15.2515
301	19	10	2	7	315.8226	56	1	800	20041.0003	 0.0009	17.1092	17.9260	18.6427	18.9596	15.2515
301	19	11	2	7	337.1641	29	1	800	20041.0003	 0.0009	18.9759	19.7926	20.5093	20.8476	15.2515
301	19	12	2	7	397.7962	29	1	800	20041.0003	 0.0009	20.8593	21.6760	22.3926	22.7914	15.2515
301	20	1	1	7	471.0598	29	1	800	20113.4002	 0.0008	 0.0179	 0.8346	 1.5512	 2.0233	0
301	20	2	1	7	302.5932	56	1	800	20113.4002	 0.0008	 2.0345	 2.8512	 3.5678	 3.8715	0
301	20	3	1	7	373.1688	56	1	800	20113.4002	 0.0008	 3.8845	 4.7012	 5.4178	 5.7919	0
301	20	4	1	7	488.3830	29	1	800	20113.4002	 0.0008	 5.8012	 6.6179	 7.3346	 7.8239	0
301	20	5	1	7	382.5702	56	1	800	20113.4002	 0.0008	 7.8345	 8.6512	 9.3679	 9.7515	0
301	20	6	1	7	361.2770	29	1	800	20113.4002	 0.0008	 9.7678	10.5846	11.3012	11.6636	0
301	20	7	1	7	380.7201	29	1	800	20113.4002	 0.0008	11.6846	12.5013	13.2179	13.5997	0
301	20	8	1	7	351.7194	29	1	800	20113.4002	 0.0008	13.6178	14.4346	15.1512	15.5039	0
301	20	9	1	7	355.1914	56	1	800	20113.4002	 0.0008	15.5178	16.3346	17.0513	17.4075	0
301	20	10	1	7	383.2865	29	1	800	20113.4002	 0.0008	17.4179	18.2346	18.9512	19.3357	0
301	20	11	1	7	313.6467	29	1	800	20113.4002	 0.0008	19.3512	20.1679	20.8846	21.1992	0
301	20	12	1	7	303.3964	56	1	800	20113.4002	 0.0008	21.2178	22.0346	22.7512	23.0556	0
301	20	13	1	7	349.8978	29	1	800	20113.4002	 0.0008	23.0678	23.8846	24.6012	24.9521	0
301	20	14	1	7	337.6136	56	1	800	20113.4002	 0.0008	24.9678	25.7846	26.5013	26.8399	0
301	20	15	1	7	333.8474	56	1	800	20113.4002	 0.0008	26.8512	27.6678	28.3846	28.7195	0
301	20	16	1	7	323.2446	56	0	800	20113.4002	 0.0008	28.7346	29.5512	30.2679	30.5921	0
301	20	17	1	7	386.7305	56	1	800	20113.4002	 0.0008	 0.0145	 0.8312	 1.5479	 1.9357	0
301	20	18	1	7	349.6544	29	1	800	20113.4002	 0.0008	 1.9479	 2.7645	 3.4813	 3.8319	0
301	20	19	1	7	457.1157	56	1	800	20113.4002	 0.0008	 3.8478	 4.6646	 5.3813	 5.8395	0
301	20	20	1	7	353.0879	56	1	800	20113.4002	 0.0008	 5.8478	 6.6646	 7.3812	 7.7354	0
301	20	21	1	7	421.9137	29	1	800	20113.4002	 0.0008	 7.7478	 8.5645	 9.2812	 9.7043	0
301	20	22	1	7	350.3514	56	1	800	20113.4002	 0.0008	 9.7145	10.5313	11.2479	11.5992	0
301	20	23	1	7	315.2231	29	1	800	20113.4002	 0.0008	11.6145	12.4313	13.1479	13.4641	0
301	20	24	1	7	416.6431	29	1	800	20113.4002	 0.0008	13.4811	14.2978	15.0146	15.4326	0
301	20	25	1	7	385.9605	29	1	800	20113.4002	 0.0008	15.4478	16.2645	16.9812	17.3683	0
301	20	26	1	7	403.7813	56	0	800	20113.4002	 0.0008	17.3811	18.1978	18.9145	19.3193	0
301	20	27	1	7	355.6543	56	1	800	20113.4002	 0.0008	 0.0227	 0.8394	 1.5561	 1.9128	0
301	20	28	1	7	455.4214	56	1	800	20113.4002	 0.0008	 1.9227	 2.7394	 3.4560	 3.9128	0
301	20	29	1	7	391.8247	56	1	800	20113.4002	 0.0008	 3.9226	 4.7394	 5.4560	 5.8489	0
301	20	30	1	7	314.5801	56	1	800	20113.4002	 0.0008	 5.8560	 6.6727	 7.3894	 7.7050	0
301	21	1	1	7	529.2285	29	1	800	20179.1502	 0.0007	 0.0162	 0.8330	 1.5496	 2.0800	0
301	21	2	1	7	446.8420	29	1	800	20179.1502	 0.0007	 2.0996	 2.9163	 3.6330	 4.0809	0
301	21	3	1	7	389.7716	29	1	800	20179.1502	 0.0007	 4.0996	 4.9163	 5.6330	 6.0238	0
301	21	4	1	7	449.1738	29	1	800	20179.1502	 0.0007	 6.0329	 6.8496	 7.5663	 8.0165	0
301	21	5	1	7	336.3601	56	1	800	20179.1502	 0.0007	 8.0329	 8.8496	 9.5663	 9.9037	0
301	21	6	1	7	317.0333	56	1	800	20179.1502	 0.0007	 9.9162	10.7329	11.4496	11.7678	0
301	21	7	1	7	363.0633	29	1	800	20179.1502	 0.0007	11.7829	12.5997	13.3163	13.6803	0
301	21	8	1	7	381.6631	56	1	800	20179.1502	 0.0007	13.6995	14.5163	15.2330	15.6156	0
301	21	9	1	7	376.7718	29	1	800	20179.1502	 0.0007	15.6329	16.4496	17.1663	17.5442	0
301	21	10	1	7	427.1504	29	1	800	20179.1502	 0.0007	17.5662	18.3830	19.0996	19.5279	0
301	21	11	1	7	532.0604	29	1	800	20179.1502	 0.0007	19.5495	20.3662	21.0830	21.6161	0
301	21	12	1	7	360.6193	29	1	800	20179.1502	 0.0007	21.6329	22.4496	23.1663	23.5280	0
301	22	1	1	8	363.1218	29	1	800	20211.9836	 0.0007	 0.0062	 0.8229	 1.5395	 1.9035	0
301	22	2	1	8	349.9481	29	1	800	20211.9836	 0.0007	 1.9228	 2.7395	 3.4561	 3.8073	0
301	22	3	1	8	306.4274	56	1	800	20211.9836	 0.0007	 3.8228	 4.6396	 5.3563	 5.6637	0
301	22	4	1	8	304.4510	56	1	800	20211.9836	 0.0007	 5.6728	 6.4896	 7.2063	 7.5119	0
301	22	5	1	8	341.8921	56	1	800	20211.9836	 0.0007	 7.5228	 8.3396	 9.0563	 9.3994	0
301	22	6	1	8	354.3239	29	1	800	20211.9836	 0.0007	 9.4062	10.2229	10.9396	11.2949	0
301	22	7	1	8	478.4873	29	1	800	20211.9836	 0.0007	11.3062	12.1229	12.8396	13.3191	0
301	22	8	1	8	437.1882	56	1	800	20211.9836	 0.0007	13.3395	14.1562	14.8729	15.3112	0
301	22	9	1	8	325.9568	29	1	800	20211.9836	 0.0007	15.3228	16.1396	16.8562	17.1838	0
301	22	10	1	8	322.5376	29	1	800	20211.9836	 0.0007	17.2062	18.0229	18.7395	19.0631	0
301	22	11	1	8	391.7443	56	1	800	20211.9836	 0.0007	19.0728	19.8896	20.6062	20.9990	0
301	22	12	1	8	339.1832	56	1	800	20211.9836	 0.0007	21.0062	21.8229	22.5395	22.8797	0
301	22	13	1	8	359.7095	29	1	800	20211.9836	 0.0007	22.8895	23.7062	24.4229	24.7836	0
301	22	14	1	8	307.1942	56	1	800	20211.9836	 0.0007	24.7895	25.6063	26.3229	26.6312	0
301	22	15	1	8	297.6629	56	1	800	20211.9836	 0.0007	26.6395	27.4562	28.1729	28.4716	0
301	22	16	1	8	359.2051	56	1	800	20211.9836	 0.0007	28.4895	29.3063	30.0229	30.3831	0
301	22	17	1	8	339.4880	29	1	800	20211.9836	 0.0007	30.3895	31.2063	31.9229	32.2635	0
301	22	18	1	8	335.7641	56	1	800	20211.9836	 0.0007	32.2728	33.0895	33.8063	34.1433	0
301	22	19	1	8	300.2673	56	1	800	20211.9836	 0.0007	34.1562	34.9729	35.6896	35.9909	0
301	22	20	1	8	347.2199	29	1	800	20211.9836	 0.0007	36.0062	36.8229	37.5395	37.8878	0
301	22	21	1	8	358.3492	29	1	800	20211.9836	 0.0007	37.9061	38.7229	39.4396	39.7991	0
301	22	22	1	8	387.0902	56	1	800	20211.9836	 0.0007	39.8062	40.6229	41.3396	41.7276	0
301	22	23	1	8	373.8021	29	1	800	20211.9836	 0.0007	41.7395	42.5562	43.2728	43.6476	0
301	22	24	1	8	336.4746	56	1	800	20211.9836	 0.0007	43.6561	44.4730	45.1896	45.5272	0
301	22	25	1	8	301.0684	56	1	800	20211.9836	 0.0007	45.5395	46.3562	47.0729	47.3750	0
301	22	26	1	8	347.4283	29	1	800	20211.9836	 0.0007	47.3895	48.2064	48.9229	49.2714	0
301	22	27	1	8	383.2937	56	1	800	20211.9836	 0.0007	49.2895	50.1062	50.8229	51.2072	0
301	22	28	1	8	314.6225	56	1	800	20211.9836	 0.0007	51.2228	52.0396	52.7562	53.0720	0
301	22	29	1	8	367.1700	29	1	800	20211.9836	 0.0007	53.0895	53.9063	54.6229	54.9911	0
301	22	30	1	8	338.3601	56	1	800	20211.9836	 0.0007	55.0062	55.8229	56.5396	56.8791	0
301	23	1	1	8	389.8616	29	1	800	20274.7674	 0.0012	 0.0193	 0.8360	 1.5527	 1.9436	0
301	23	2	1	8	465.1187	29	1	800	20274.7674	 0.0012	 1.9526	 2.7694	 3.4860	 3.9521	0
301	23	3	1	8	312.0214	56	1	800	20274.7674	 0.0012	 3.9694	 4.7861	 5.5027	 5.8158	0
301	23	4	1	8	405.0498	29	1	800	20274.7674	 0.0012	 5.8359	 6.6527	 7.3693	 7.7754	0
301	23	5	1	8	351.5188	29	1	800	20274.7674	 0.0012	 7.7859	 8.6026	 9.3194	 9.6719	0
301	23	6	1	8	323.0685	29	1	800	20274.7674	 0.0012	 9.6859	10.5027	11.2194	11.5440	0
301	23	7	1	8	344.2845	56	1	800	20274.7674	 0.0012	11.5526	12.3693	13.0861	13.4314	0
301	23	8	1	8	317.1383	56	1	800	20274.7674	 0.0012	13.4526	14.2693	14.9861	15.3042	0
301	23	9	1	8	449.8693	29	1	800	20274.7674	 0.0012	15.3193	16.1360	16.8526	17.3036	0
301	23	10	1	8	306.1707	56	1	800	20274.7674	 0.0012	17.3193	18.1361	18.8526	19.1599	0
301	23	11	1	8	312.3205	56	1	800	20274.7674	 0.0012	19.1693	19.9860	20.7027	21.0160	0
301	23	12	1	8	341.8608	56	1	800	20274.7674	 0.0012	21.0360	21.8527	22.5694	22.9123	0
301	24	1	1	8	313.6945	56	1	800	20311.2002	 0.0007	 0.0071	 0.8240	 1.5405	 1.8553	0
301	24	2	1	8	319.8018	56	1	800	20311.2002	 0.0007	 1.8738	 2.6905	 3.4072	 3.7280	0
301	24	3	1	8	325.1809	56	1	800	20311.2002	 0.0007	 3.7405	 4.5571	 5.2739	 5.6001	0
301	24	4	1	8	377.7038	56	1	800	20311.2002	 0.0007	 5.6071	 6.4238	 7.1405	 7.5192	0
301	24	5	1	8	468.4927	29	1	800	20311.2002	 0.0007	 7.5405	 8.3572	 9.0739	 9.5435	0
301	24	6	1	8	308.3623	56	1	800	20311.2002	 0.0007	 9.5571	10.3739	11.0906	11.4000	0
301	24	7	1	8	370.5762	29	1	800	20311.2002	 0.0007	11.4071	12.2239	12.9406	13.3122	0
301	24	8	1	8	333.0348	29	1	800	20311.2002	 0.0007	13.3238	14.1405	14.8573	15.1915	0
301	24	9	1	8	409.9390	29	1	800	20311.2002	 0.0007	15.2072	16.0238	16.7405	17.1521	0
301	24	10	1	8	323.7751	56	1	800	20311.2002	 0.0007	17.1738	17.9906	18.7072	19.0319	0
301	24	11	1	8	352.7523	29	1	800	20311.2002	 0.0007	19.0405	19.8572	20.5739	20.9276	0
301	24	12	1	8	372.4780	56	1	800	20311.2002	 0.0007	20.9405	21.7572	22.4739	22.8474	0
301	24	13	1	8	392.7488	29	1	800	20311.2002	 0.0007	22.8571	23.6739	24.3905	24.7845	0
301	24	14	1	8	385.8415	56	1	800	20311.2002	 0.0007	24.8072	25.6239	26.3405	26.7275	0
301	24	15	1	8	596.6660	29	1	800	20311.2002	 0.0007	26.7405	27.5572	28.2739	28.8718	0
301	24	16	1	8	358.2628	56	1	800	20311.2002	 0.0007	28.8905	29.7072	30.4239	30.7832	0
301	24	17	1	8	458.5562	56	1	800	20311.2002	 0.0007	30.7905	31.6072	32.3239	32.7835	0
301	24	18	1	8	434.7540	56	1	800	20311.2002	 0.0007	32.7905	33.6071	34.3239	34.7598	0
301	24	19	1	8	515.1070	29	1	800	20311.2002	 0.0007	34.7738	35.5905	36.3072	36.8234	0
301	24	20	1	8	441.0676	56	1	800	20311.2002	 0.0007	36.8405	37.6572	38.3738	38.8158	0
301	24	21	1	8	377.2029	56	1	800	20311.2002	 0.0007	38.8238	39.6405	40.3572	40.7355	0
301	24	22	1	8	388.5317	56	1	800	20311.2002	 0.0007	40.7571	41.5739	42.2905	42.6800	0
301	24	23	1	8	486.4094	29	1	800	20311.2002	 0.0007	42.6904	43.5072	44.2239	44.7117	0
301	24	24	1	8	413.0177	29	1	800	20311.2002	 0.0007	44.7238	45.5405	46.2572	46.6713	0
301	24	25	1	8	446.6979	29	1	800	20311.2002	 0.0007	46.6905	47.5072	48.2239	48.6717	0
301	24	26	1	8	359.1470	56	1	800	20311.2002	 0.0007	48.6905	49.5072	50.2238	50.5839	0
301	24	27	1	8	346.4026	56	1	800	20311.2002	 0.0007	50.5905	51.4072	52.1239	52.4713	0
301	24	28	1	8	430.5366	29	1	800	20311.2002	 0.0007	52.4905	53.3073	54.0238	54.4554	0
301	24	29	1	8	519.2064	29	1	800	20311.2002	 0.0007	54.4738	55.2905	56.0071	56.5274	0
301	24	30	1	8	349.2610	56	1	800	20311.2002	 0.0007	56.5405	57.3572	58.0739	58.4244	0
301	25	1	1	9	316.5633	56	1	800	20375.2002	 0.0007	 0.0127	 0.8294	 1.5460	 1.8636	0
301	25	2	1	9	377.7531	56	1	800	20375.2002	 0.0007	 1.8794	 2.6960	 3.4127	 3.7916	0
301	25	3	1	9	485.2493	29	1	800	20375.2002	 0.0007	 3.8127	 4.6293	 5.3460	 5.8322	0
301	25	4	1	9	379.2612	56	1	800	20375.2002	 0.0007	 5.8460	 6.6627	 7.3793	 7.7597	0
301	25	5	1	9	317.7657	56	1	800	20375.2002	 0.0007	 7.7793	 8.5960	 9.3128	 9.6317	0
301	25	6	1	9	371.8594	29	1	800	20375.2002	 0.0007	 9.6460	10.4628	11.1794	11.5523	0
301	25	7	1	9	367.2427	29	1	800	20375.2002	 0.0007	11.5626	12.3794	13.0961	13.4643	0
301	25	8	1	9	329.8035	56	1	800	20375.2002	 0.0007	13.4793	14.2960	15.0127	15.3437	0
301	25	9	1	9	294.5252	56	1	800	20375.2002	 0.0007	15.3627	16.1793	16.8961	17.1917	0
301	25	10	1	9	316.3380	56	1	800	20375.2002	 0.0007	17.2127	18.0294	18.7461	19.0635	0
301	25	11	1	9	378.0823	56	1	800	20375.2002	 0.0007	19.0793	19.8960	20.6127	20.9920	0
301	25	12	1	9	364.8359	29	1	800	20375.2002	 0.0007	21.0127	21.8294	22.5460	22.9119	0
301	26	1	1	9	282.4266	56	1	800	20407.8669	 0.0007	 0.0071	 0.8237	 1.5404	 1.8237	0
301	26	2	1	9	504.3602	29	1	800	20407.8669	 0.0007	 1.8404	 2.6571	 3.3738	 3.8793	0
301	26	3	1	9	350.4129	56	1	800	20407.8669	 0.0007	 3.8903	 4.7070	 5.4238	 5.7753	0
301	26	4	1	9	419.2279	56	1	800	20407.8669	 0.0007	 5.7904	 6.6072	 7.3237	 7.7439	0
301	26	5	1	9	356.1927	56	1	800	20407.8669	 0.0007	 7.7570	 8.5737	 9.2904	 9.6477	0
301	26	6	1	9	375.7335	56	1	800	20407.8669	 0.0007	 9.6571	10.4737	11.1904	11.5671	0
301	26	7	1	9	315.8796	29	1	800	20407.8669	 0.0007	11.5737	12.3905	13.1071	13.4240	0
301	26	8	1	9	376.7947	29	1	800	20407.8669	 0.0007	13.4404	14.2571	14.9738	15.3516	0
301	26	9	1	9	314.9749	56	1	800	20407.8669	 0.0007	15.3737	16.1904	16.9071	17.2231	0
301	26	10	1	9	400.9943	29	1	800	20407.8669	 0.0007	17.2404	18.0571	18.7738	19.1757	0
301	26	11	1	9	290.9911	56	1	800	20407.8669	 0.0007	19.1904	20.0071	20.7238	21.0158	0
301	26	12	1	9	377.4257	29	1	800	20407.8669	 0.0007	21.0237	21.8404	22.5571	22.9355	0
301	26	13	1	9	387.7367	56	1	800	20407.8669	 0.0007	22.9571	23.7737	24.4904	24.8792	0
301	26	14	1	9	318.7951	56	1	800	20407.8669	 0.0007	24.8904	25.7070	26.4237	26.7436	0
301	26	15	1	9	300.0085	56	1	800	20407.8669	 0.0007	26.7570	27.5737	28.2905	28.5915	0
301	26	16	1	9	433.6781	56	1	800	20407.8669	 0.0007	28.6070	29.4238	30.1405	30.5754	0
301	26	17	1	9	411.1699	29	1	800	20407.8669	 0.0007	30.5903	31.4070	32.1237	32.5359	0
301	26	18	1	9	339.8350	56	1	800	20407.8669	 0.0007	32.5570	33.3737	34.0904	34.4313	0
301	26	19	1	9	424.7699	29	1	800	20407.8669	 0.0007	34.4404	35.2570	35.9737	36.3997	0
301	26	20	1	9	393.7179	29	1	800	20407.8669	 0.0007	36.4070	37.2237	37.9404	38.3352	0
301	26	21	1	9	371.8477	29	1	800	20407.8669	 0.0007	38.3570	39.1737	39.8904	40.2635	0
301	26	22	1	9	375.4162	56	1	800	20407.8669	 0.0007	40.2737	41.0904	41.8071	42.1837	0
301	26	23	1	9	466.6704	29	1	800	20407.8669	 0.0007	42.1903	43.0071	43.7238	44.1915	0
301	26	24	1	9	474.3071	29	1	800	20407.8669	 0.0007	44.2070	45.0238	45.7405	46.2157	0
301	26	25	1	9	329.0968	56	1	800	20407.8669	 0.0007	46.2237	47.0404	47.7570	48.0872	0
301	26	26	1	9	437.8807	56	1	800	20407.8669	 0.0007	48.1070	48.9238	49.6404	50.0794	0
301	26	27	1	9	350.6308	29	1	800	20407.8669	 0.0007	50.0904	50.9072	51.6237	51.9754	0
301	26	28	1	9	307.2358	56	1	800	20407.8669	 0.0007	51.9904	52.8071	53.5238	53.8320	0
301	26	29	1	9	368.4591	29	1	800	20407.8669	 0.0007	53.8403	54.6570	55.3738	55.7433	0
301	26	30	1	9	451.6787	29	1	800	20407.8669	 0.0007	55.7570	56.5738	57.2904	57.7432	0
301	27	1	1	9	328.6017	56	1	800	20470.2836	 0.0007	 0.0161	 0.8329	 1.5494	 1.8791	0
301	27	2	1	9	348.9938	29	1	800	20470.2836	 0.0007	 1.8995	 2.7162	 3.4329	 3.7830	0
301	27	3	1	9	473.9075	29	1	800	20470.2836	 0.0007	 3.7995	 4.6162	 5.3328	 5.8077	0
301	27	4	1	9	440.3174	29	1	800	20470.2836	 0.0007	 5.8161	 6.6328	 7.3496	 7.7909	0
301	27	5	1	9	344.9860	56	1	800	20470.2836	 0.0007	 7.7994	 8.6161	 9.3329	 9.6790	0
301	27	6	1	9	373.3128	56	1	800	20470.2836	 0.0007	 9.6994	10.5162	11.2328	11.6073	0
301	27	7	1	9	392.2979	56	1	800	20470.2836	 0.0007	11.6161	12.4329	13.1495	13.5428	0
301	27	8	1	9	355.0837	29	1	800	20470.2836	 0.0007	13.5494	14.3661	15.0828	15.4396	0
301	27	9	1	9	358.9694	29	1	800	20470.2836	 0.0007	15.4494	16.2662	16.9829	17.3429	0
301	27	10	1	9	379.4493	29	1	800	20470.2836	 0.0007	17.3494	18.1662	18.8829	19.2635	0
301	27	11	1	9	699.4313	1	0	800	20470.2836	 0.0007	19.2828	20.0995	20.8162	21.5164	0
301	27	12	1	9	383.5863	56	1	800	20470.2836	 0.0007	 0.0174	 0.8341	 1.5509	 1.9355	0
301	27	1	2	9	302.4737	56	1	800	20470.2836	 0.0007	 0.0120	 0.8286	 1.5453	 1.8487	 1.9383
301	27	2	2	9	316.1529	56	1	800	20470.2836	 0.0007	 1.8619	 2.6787	 3.3953	 3.7126	 1.9383
301	27	3	2	9	345.8074	29	1	800	20470.2836	 0.0007	 3.7286	 4.5453	 5.2621	 5.6089	 1.9383
301	27	4	2	9	452.9614	29	1	800	20470.2836	 0.0007	 5.6286	 6.4454	 7.1621	 7.6161	 1.9383
301	27	5	2	9	373.3311	29	1	800	20470.2836	 0.0007	 7.6286	 8.4454	 9.1620	 9.5367	 1.9383
301	27	6	2	9	472.4205	29	1	800	20470.2836	 0.0007	 9.5453	10.3621	11.0787	11.5522	 1.9383
301	27	7	2	9	375.9488	56	1	800	20470.2836	 0.0007	11.5620	12.3787	13.0954	13.4724	 1.9383
301	27	8	2	9	363.8658	29	1	800	20470.2836	 0.0007	13.4786	14.2953	15.0120	15.3769	 1.9383
301	27	9	2	9	366.8421	56	1	800	20470.2836	 0.0007	15.3953	16.2120	16.9286	17.2965	 1.9383
301	27	10	2	9	378.4473	29	1	800	20470.2836	 0.0007	17.3119	18.1287	18.8453	19.2247	 1.9383
301	27	11	2	9	420.4562	29	1	800	20470.2836	 0.0007	19.2454	20.0620	20.7787	21.2002	 1.9383
301	27	12	2	9	406.2407	56	1	800	20470.2836	 0.0007	21.2119	22.0287	22.7454	23.1526	 1.9383
301	28	1	1	10	500.5239	29	1	800	20548.9169	 0.0007	 0.0040	 0.8207	 1.5374	 2.0389	0
301	28	2	1	10	450.3659	29	1	800	20548.9169	 0.0007	 2.0540	 2.8707	 3.5873	 4.0387	0
301	28	3	1	10	314.3354	56	1	800	20548.9169	 0.0007	 4.0540	 4.8707	 5.5874	 5.9028	0
301	28	4	1	10	383.6539	56	1	800	20548.9169	 0.0007	 5.9206	 6.7374	 7.4540	 7.8388	0
301	28	5	1	10	514.5985	29	1	800	20548.9169	 0.0007	 7.8540	 8.6707	 9.3874	 9.9031	0
301	28	6	1	10	344.1159	56	1	800	20548.9169	 0.0007	 9.9206	10.7374	11.4540	11.7993	0
301	28	7	1	10	316.4337	56	1	800	20548.9169	 0.0007	11.8206	12.6374	13.3540	13.6714	0
301	28	8	1	10	377.4057	29	1	800	20548.9169	 0.0007	13.6873	14.5040	15.2207	15.5992	0
301	28	9	1	10	364.0502	29	1	800	20548.9169	 0.0007	15.6207	16.4374	17.1540	17.5192	0
301	28	10	1	10	559.0992	29	1	800	20548.9169	 0.0007	17.5373	18.3540	19.0706	19.6307	0
301	28	11	1	10	371.8796	29	1	800	20548.9169	 0.0007	19.6373	20.4540	21.1706	21.5435	0
301	28	12	1	10	382.5248	29	1	800	20548.9169	 0.0007	21.5539	22.3707	23.0873	23.4709	0
301	28	13	1	10	345.9501	29	1	800	20548.9169	 0.0007	23.4873	24.3039	25.0207	25.3677	0
301	28	14	1	10	421.4401	29	1	800	20548.9169	 0.0007	25.3873	26.2041	26.9207	27.3432	0
301	28	15	1	10	310.3502	56	1	800	20548.9169	 0.0007	27.3539	28.1707	28.8873	29.1986	0
301	28	16	1	10	475.6478	56	1	800	20548.9169	 0.0007	29.2206	30.0374	30.7540	31.2307	0
301	28	17	1	10	371.3022	29	1	800	20548.9169	 0.0007	31.2373	32.0541	32.7707	33.1430	0
301	28	18	1	10	350.4465	56	1	800	20548.9169	 0.0007	33.1540	33.9707	34.6873	35.0391	0
301	28	19	1	10	411.0937	29	1	800	20548.9169	 0.0007	35.0540	35.8707	36.5873	36.9994	0
301	28	20	1	10	356.2912	56	1	800	20548.9169	 0.0007	37.0206	37.8373	38.5540	38.9113	0
301	28	21	1	10	296.5199	56	1	800	20548.9169	 0.0007	38.9206	39.7374	40.4540	40.7514	0
301	28	22	1	10	397.9581	56	0	800	20548.9169	 0.0007	40.7707	41.5874	42.3040	42.7031	0
301	28	23	1	10	478.3558	29	1	800	20548.9169	 0.0007	 0.0186	 0.8354	 1.5520	 2.0315	0
301	28	24	1	10	445.0577	29	1	800	20548.9169	 0.0007	 2.0519	 2.8687	 3.5854	 4.0315	0
301	28	25	1	10	685.3131	56	1	800	20548.9169	 0.0007	 4.0520	 4.8687	 5.5854	 6.2717	0
301	28	26	1	10	404.4130	29	1	800	20548.9169	 0.0007	 6.2853	 7.1020	 7.8187	 8.2242	0
301	28	27	1	10	478.6399	29	1	800	20548.9169	 0.0007	 8.2353	 9.0520	 9.7687	10.2485	0
301	28	28	1	10	444.4938	29	1	800	20548.9169	 0.0007	10.2686	11.0854	11.8020	12.2476	0
301	28	29	1	10	404.7020	29	1	800	20548.9169	 0.0007	12.2686	13.0854	13.8020	14.2079	0
301	28	30	1	10	374.8051	29	1	800	20548.9169	 0.0007	14.2186	15.0353	15.7520	16.1279	0
301	29	1	1	10	362.0547	56	1	800	20618.5336	 0.0007	 0.0079	 0.8245	 1.5412	 1.9043	0
301	29	2	1	10	357.4456	29	1	800	20618.5336	 0.0007	 1.9246	 2.7413	 3.4580	 3.8165	0
301	29	3	1	10	306.2883	56	1	800	20618.5336	 0.0007	 3.8245	 4.6413	 5.3579	 5.6654	0
301	29	4	1	10	447.1394	29	1	800	20618.5336	 0.0007	 5.6745	 6.4912	 7.2080	 7.6562	0
301	29	5	1	10	391.0724	29	1	800	20618.5336	 0.0007	 7.6746	 8.4913	 9.2079	 9.6000	0
301	29	6	1	10	329.7698	56	1	800	20618.5336	 0.0007	 9.6078	10.4246	11.1413	11.4721	0
301	29	7	1	10	358.3321	56	1	800	20618.5336	 0.0007	11.4912	12.3080	13.0246	13.3842	0
301	29	8	1	10	354.4008	29	1	800	20618.5336	 0.0007	13.3912	14.2079	14.9245	15.2799	0
301	29	9	1	10	319.1681	56	1	800	20618.5336	 0.0007	15.2912	16.1079	16.8246	17.1447	0
301	29	10	1	10	371.6246	29	1	800	20618.5336	 0.0007	17.1579	17.9745	18.6913	19.0640	0
301	29	11	1	10	327.4172	56	1	800	20618.5336	 0.0007	19.0745	19.8912	20.6079	20.9364	0
301	29	12	1	10	355.9097	29	1	800	20618.5336	 0.0007	20.9579	21.7746	22.4912	22.8482	0
301	30	1	1	10	361.7358	29	1	800	20655.1002	 0.0007	 0.0156	 0.8323	 1.5489	 1.9117	0
301	30	2	1	10	300.9750	56	0	800	20655.1002	 0.0007	 1.9323	 2.7490	 3.4657	 3.7677	0
301	30	3	1	10	699.4380	1	0	800	20655.1002	 0.0007	 0.0069	 0.8237	 1.5404	 2.2406	0
301	30	4	1	10	466.4863	56	1	800	20655.1002	 0.0007	 0.0226	 0.8393	 1.5560	 2.0237	0
301	30	5	1	10	362.0291	56	1	800	20655.1002	 0.0007	 2.0393	 2.8559	 3.5727	 3.9358	0
301	30	6	1	10	405.2352	29	1	800	20655.1002	 0.0007	 3.9560	 4.7727	 5.4893	 5.8956	0
301	30	7	1	10	615.4701	29	1	800	20655.1002	 0.0007	 5.9060	 6.7227	 7.4394	 8.0559	0
301	30	8	1	10	361.1286	29	1	800	20655.1002	 0.0007	 8.0726	 8.8895	 9.6060	 9.9681	0
301	30	9	1	10	564.6223	29	1	800	20655.1002	 0.0007	 9.9893	10.8061	11.5226	12.0882	0
301	30	10	1	10	699.9356	1	0	800	20655.1002	 0.0007	12.1060	12.9226	13.6394	14.3400	0
301	30	11	1	10	292.9588	56	1	800	20655.1002	 0.0007	 0.0203	 0.8370	 1.5536	 1.8477	0
301	30	12	1	10	356.1223	56	1	800	20655.1002	 0.0007	 1.8535	 2.6703	 3.3870	 3.7442	0
301	30	13	1	10	343.7905	29	1	800	20655.1002	 0.0007	 3.7535	 4.5703	 5.2869	 5.6318	0
301	30	14	1	10	347.7461	56	1	800	20655.1002	 0.0007	 5.6535	 6.4703	 7.1869	 7.5356	0
301	30	15	1	10	408.3839	29	1	800	20655.1002	 0.0007	 7.5535	 8.3703	 9.0869	 9.4963	0
301	30	16	1	10	433.8324	56	1	800	20655.1002	 0.0007	 9.5035	10.3202	11.0369	11.4718	0
301	30	17	1	10	330.8104	29	1	800	20655.1002	 0.0007	11.4869	12.3036	13.0203	13.3523	0
301	30	18	1	10	327.8574	29	1	800	20655.1002	 0.0007	13.3702	14.1869	14.9037	15.2326	0
301	30	19	1	10	315.6570	56	1	800	20655.1002	 0.0007	15.2535	16.0702	16.7870	17.1036	0
301	30	20	1	10	313.6903	56	1	800	20655.1002	 0.0007	17.1202	17.9369	18.6537	18.9683	0
301	30	21	1	10	278.3877	56	1	800	20655.1002	 0.0007	18.9869	19.8036	20.5203	20.7997	0
301	30	22	1	10	357.0509	29	1	800	20655.1002	 0.0007	20.8202	21.6369	22.3536	22.7117	0
301	30	23	1	10	392.7959	29	1	800	20655.1002	 0.0007	22.7202	23.5369	24.2536	24.6486	0
301	30	24	1	10	331.0809	56	1	800	20655.1002	 0.0007	24.6702	25.4869	26.2036	26.5357	0
301	30	25	1	10	328.3371	56	1	800	20655.1002	 0.0007	26.5536	27.3702	28.0869	28.4162	0
301	30	26	1	10	301.0589	56	1	800	20655.1002	 0.0007	28.4369	29.2536	29.9702	30.2722	0
301	30	27	1	10	410.7784	29	1	800	20655.1002	 0.0007	30.2869	31.1036	31.8202	32.2322	0
301	30	28	1	10	356.3883	56	1	800	20655.1002	 0.0007	32.2536	33.0703	33.7869	34.1443	0
301	30	29	1	10	304.0757	56	1	800	20655.1002	 0.0007	34.1535	34.9704	35.6870	35.9922	0
301	30	30	1	10	454.5612	29	1	800	20655.1002	 0.0007	36.0035	36.8203	37.5369	37.9925	0
301	31	1	1	11	343.9634	56	1	800	20722.2003	 0.0007	 0.0098	 0.8265	 1.5432	 1.8883	0
301	31	2	1	11	427.9314	29	1	800	20722.2003	 0.0007	 1.9098	 2.7265	 3.4432	 3.8722	0
301	31	3	1	11	332.3623	56	1	800	20722.2003	 0.0007	 3.8931	 4.7099	 5.4265	 5.7599	0
301	31	4	1	11	385.7499	56	1	800	20722.2003	 0.0007	 5.7765	 6.5932	 7.3098	 7.6965	0
301	31	5	1	11	348.0546	56	1	800	20722.2003	 0.0007	 7.7098	 8.5265	 9.2432	 9.5926	0
301	31	6	1	11	360.3578	56	1	800	20722.2003	 0.0007	 9.6098	10.4265	11.1432	11.5045	0
301	31	7	1	11	378.9017	56	0	800	20722.2003	 0.0007	11.5265	12.3432	13.0599	13.4399	0
301	31	8	1	11	551.6756	29	1	800	20722.2003	 0.0007	 0.0174	 0.8341	 1.5508	 2.1036	0
301	31	9	1	11	299.6513	56	1	800	20722.2003	 0.0007	 2.1173	 2.9341	 3.6508	 3.9516	0
301	31	10	1	11	522.5664	29	1	800	20722.2003	 0.0007	 3.9674	 4.7841	 5.5007	 6.0243	0
301	31	11	1	11	431.0492	29	1	800	20722.2003	 0.0007	 6.0340	 6.8507	 7.5674	 7.9996	0
301	31	12	1	11	279.7580	56	1	800	20722.2003	 0.0007	 8.0173	 8.8340	 9.5507	 9.8317	0
301	31	1	2	11	373.9235	56	1	800	20722.2003	 0.0007	 0.0117	 0.8285	 1.5451	 1.9201	 9.8354
301	31	2	2	11	416.9211	56	1	800	20722.2003	 0.0007	 1.9284	 2.7452	 3.4618	 3.8797	 9.8354
301	31	3	2	11	370.3975	29	1	800	20722.2003	 0.0007	 3.8951	 4.7118	 5.4285	 5.8000	 9.8354
301	31	4	2	11	622.4447	29	1	800	20722.2003	 0.0007	 5.8117	 6.6284	 7.3451	 7.9686	 9.8354
301	31	5	2	11	334.9921	56	1	800	20722.2003	 0.0007	 7.9784	 8.7952	 9.5118	 9.8478	 9.8354
301	31	6	2	11	380.4610	29	1	800	20722.2003	 0.0007	 9.8617	10.6785	11.3951	11.7765	 9.8354
301	31	7	2	11	423.0385	29	1	800	20722.2003	 0.0007	11.7951	12.6118	13.3286	13.7527	 9.8354
301	31	8	2	11	359.7953	56	1	800	20722.2003	 0.0007	13.7617	14.5785	15.2951	15.6561	 9.8354
301	31	9	2	11	363.9521	29	1	800	20722.2003	 0.0007	15.6617	16.4784	17.1951	17.5607	 9.8354
301	31	10	2	11	400.0913	29	1	800	20722.2003	 0.0007	17.5784	18.3951	19.1118	19.5130	 9.8354
301	31	11	2	11	337.2915	56	1	800	20722.2003	 0.0007	19.5284	20.3451	21.0617	21.4002	 9.8354
301	31	12	2	11	358.3846	29	1	800	20722.2003	 0.0007	21.4117	22.2284	22.9451	23.3044	 9.8354
301	32	1	1	11	466.5074	29	1	800	20788.0170	 0.0007	 0.0080	 0.8247	 1.5414	 2.0089	0
301	32	2	1	11	409.7271	56	1	800	20788.0170	 0.0007	 2.0246	 2.8413	 3.5580	 3.9687	0
301	32	3	1	11	355.4460	29	1	800	20788.0170	 0.0007	 3.9746	 4.7913	 5.5080	 5.8645	0
301	32	4	1	11	423.2609	29	1	800	20788.0170	 0.0007	 5.8746	 6.6914	 7.4080	 7.8323	0
301	32	5	1	11	312.3910	56	1	800	20788.0170	 0.0007	 7.8413	 8.6581	 9.3747	 9.6882	0
301	32	6	1	11	414.2528	29	1	800	20788.0170	 0.0007	 9.7080	10.5246	11.2413	11.6572	0
301	32	7	1	11	359.8873	56	1	800	20788.0170	 0.0007	11.6746	12.4913	13.2080	13.5689	0
301	32	8	1	11	395.1758	29	1	800	20788.0170	 0.0007	13.5913	14.4080	15.1247	15.5208	0
301	32	9	1	11	484.3697	56	1	800	20788.0170	 0.0007	15.5413	16.3580	17.0747	17.5601	0
301	32	10	1	11	307.5417	56	1	800	20788.0170	 0.0007	17.5746	18.3914	19.1080	19.4166	0
301	32	11	1	11	345.7259	29	1	800	20788.0170	 0.0007	19.4246	20.2413	20.9580	21.3047	0
301	32	12	1	11	317.8829	56	1	800	20788.0170	 0.0007	21.3246	22.1414	22.8580	23.1768	0
301	32	13	1	11	330.6079	29	1	800	20788.0170	 0.0007	23.1913	24.0080	24.7247	25.0563	0
301	32	14	1	11	303.3395	56	1	800	20788.0170	 0.0007	25.0746	25.8913	26.6079	26.9123	0
301	32	15	1	11	261.2417	56	1	800	20788.0170	 0.0007	26.9246	27.7414	28.4580	28.7203	0
301	32	16	1	11	357.1376	56	1	800	20788.0170	 0.0007	28.7413	29.5580	30.2747	30.6329	0
301	32	17	1	11	376.4916	29	1	800	20788.0170	 0.0007	30.6413	31.4580	32.1747	32.5522	0
301	32	18	1	11	348.1268	29	1	800	20788.0170	 0.0007	32.5579	33.3747	34.0914	34.4405	0
301	32	19	1	11	335.7958	56	1	800	20788.0170	 0.0007	34.4579	35.2747	35.9913	36.3282	0
301	32	20	1	11	340.6208	29	1	800	20788.0170	 0.0007	36.3413	37.1580	37.8746	38.2164	0
301	32	21	1	11	305.1200	56	1	800	20788.0170	 0.0007	38.2246	39.0413	39.7580	40.0642	0
301	32	22	1	11	319.0760	29	1	800	20788.0170	 0.0007	40.0746	40.8913	41.6080	41.9280	0
301	32	23	1	11	580.5990	56	0	800	20788.0170	 0.0007	41.9413	42.7580	43.4747	44.0563	0
301	32	24	1	11	312.3311	56	1	800	20788.0170	 0.0007	 0.0087	 0.8255	 1.5422	 1.8556	0
301	32	25	1	11	310.5417	56	1	800	20788.0170	 0.0007	 1.8754	 2.6921	 3.4087	 3.7202	0
301	32	26	1	11	363.2116	29	1	800	20788.0170	 0.0007	 3.7420	 4.5588	 5.2755	 5.6398	0
301	32	27	1	11	318.4184	56	1	800	20788.0170	 0.0007	 5.6587	 6.4755	 7.1921	 7.5115	0
301	32	28	1	11	299.6004	56	1	800	20788.0170	 0.0007	 7.5255	 8.3421	 9.0588	 9.3597	0
301	32	29	1	11	337.7219	29	1	800	20788.0170	 0.0007	 9.3754	10.1921	10.9088	11.2475	0
301	32	30	1	11	366.8799	29	1	800	20788.0170	 0.0007	11.2587	12.0754	12.7920	13.1599	0
301	33	1	1	11	364.4860	29	1	800	20850.7335	 0.0007	 0.0054	 0.8221	 1.5388	 1.9043	0
301	33	2	1	11	351.1873	29	1	800	20850.7335	 0.0007	 1.9221	 2.7388	 3.4555	 3.8078	0
301	33	3	1	11	323.4310	56	1	800	20850.7335	 0.0007	 3.8221	 4.6389	 5.3555	 5.6802	0
301	33	4	1	11	328.7172	29	1	800	20850.7335	 0.0007	 5.6887	 6.5055	 7.2222	 7.5519	0
301	33	5	1	11	357.0035	29	1	800	20850.7335	 0.0007	 7.5721	 8.3888	 9.1054	 9.4635	0
301	33	6	1	11	345.4491	29	1	800	20850.7335	 0.0007	 9.4721	10.2889	11.0054	11.3520	0
301	33	7	1	11	365.0655	29	1	800	20850.7335	 0.0007	11.3721	12.1888	12.9056	13.2717	0
301	33	8	1	11	304.5454	56	1	800	20850.7335	 0.0007	13.2888	14.1055	14.8222	15.1278	0
301	33	9	1	11	374.3595	29	1	800	20850.7335	 0.0007	15.1387	15.9555	16.6721	17.0475	0
301	33	10	1	11	337.8510	29	1	800	20850.7335	 0.0007	17.0554	17.8722	18.5888	18.9277	0
301	33	11	1	11	383.0572	29	1	800	20850.7335	 0.0007	18.9387	19.7555	20.4721	20.8561	0
301	33	12	1	11	345.0376	29	1	800	20850.7335	 0.0007	20.8721	21.6889	22.4055	22.7517	0
301	34	1	1	12	338.9814	29	1	800	20894.1836	 0.0007	 0.0073	 0.8240	 1.5407	 1.8806	0
301	34	2	1	12	399.2748	29	1	800	20894.1836	 0.0007	 1.8906	 2.7073	 3.4239	 3.8244	0
301	34	3	1	12	345.7481	29	1	800	20894.1836	 0.0007	 3.8406	 4.6574	 5.3740	 5.7208	0
301	34	4	1	12	317.4367	56	1	800	20894.1836	 0.0007	 5.7406	 6.5573	 7.2739	 7.5925	0
301	34	5	1	12	331.3326	29	1	800	20894.1836	 0.0007	 7.6073	 8.4240	 9.1406	 9.4732	0
301	34	6	1	12	327.6106	29	1	800	20894.1836	 0.0007	 9.4906	10.3073	11.0240	11.3526	0
301	34	7	1	12	452.0089	29	1	800	20894.1836	 0.0007	11.3739	12.1907	12.9073	13.3604	0
301	34	8	1	12	324.3865	56	1	800	20894.1836	 0.0007	13.3739	14.1907	14.9074	15.2328	0
301	34	9	1	12	337.5065	56	1	800	20894.1836	 0.0007	15.2406	16.0573	16.7740	17.1126	0
301	34	10	1	12	302.4181	56	1	800	20894.1836	 0.0007	17.1239	17.9407	18.6574	18.9608	0
301	34	11	1	12	347.7741	56	1	800	20894.1836	 0.0007	18.9739	19.7907	20.5074	20.8563	0
301	34	12	1	12	312.0876	56	1	800	20894.1836	 0.0007	20.8740	21.6906	22.4073	22.7204	0
301	34	13	1	12	333.8002	56	1	800	20894.1836	 0.0007	22.7406	23.5574	24.2739	24.6087	0
301	34	14	1	12	306.1025	56	1	800	20894.1836	 0.0007	24.6239	25.4407	26.1574	26.4646	0
301	34	15	1	12	280.2267	56	1	800	20894.1836	 0.0007	26.4739	27.2906	28.0073	28.2886	0
301	34	16	1	12	430.4649	56	1	800	20894.1836	 0.0007	28.3073	29.1240	29.8407	30.2723	0
301	34	17	1	12	311.3457	56	1	800	20894.1836	 0.0007	30.2906	31.1073	31.8240	32.1368	0
301	34	18	1	12	340.3496	56	1	800	20894.1836	 0.0007	32.1573	32.9739	33.6906	34.0320	0
301	34	19	1	12	417.8078	29	1	800	20894.1836	 0.0007	34.0406	34.8574	35.5739	35.9926	0
301	34	20	1	12	467.1929	29	1	800	20894.1836	 0.0007	36.0073	36.8239	37.5406	38.0088	0
301	34	21	1	12	699.8971	1	0	800	20894.1836	 0.0007	38.0240	38.8407	39.5572	40.2579	0
301	34	22	1	12	426.3795	29	1	800	20894.1836	 0.0007	 0.0230	 0.8397	 1.5564	 1.9839	0
301	34	23	1	12	347.9339	29	1	800	20894.1836	 0.0007	 1.9896	 2.8064	 3.5230	 3.8720	0
301	34	24	1	12	311.8615	29	1	800	20894.1836	 0.0007	 3.8896	 4.7063	 5.4230	 5.7359	0
301	34	25	1	12	397.2463	29	1	800	20894.1836	 0.0007	 5.7563	 6.5731	 7.2897	 7.6881	0
301	34	26	1	12	463.4980	29	1	800	20894.1836	 0.0007	 7.7063	 8.5231	 9.2397	 9.7043	0
301	34	27	1	12	327.1213	29	1	800	20894.1836	 0.0007	 9.7230	10.5397	11.2564	11.5845	0
301	34	28	1	12	291.4773	56	1	800	20894.1836	 0.0007	11.6063	12.4230	13.1398	13.4323	0
301	34	29	1	12	345.7621	29	1	800	20894.1836	 0.0007	13.4396	14.2564	14.9731	15.3199	0
301	34	30	1	12	333.9079	56	1	800	20894.1836	 0.0007	15.3396	16.1564	16.8731	17.2081	0
301	35	1	1	12	417.7236	29	1	800	20957.1670	 0.0007	 0.0164	 0.8331	 1.5498	 1.9686	0
301	35	2	1	12	306.5010	56	1	800	20957.1670	 0.0007	 1.9831	 2.7998	 3.5164	 3.8239	0
301	35	3	1	12	416.8472	56	1	800	20957.1670	 0.0007	 3.8330	 4.6498	 5.3664	 5.7843	0
301	35	4	1	12	298.1507	56	1	800	20957.1670	 0.0007	 5.7997	 6.6164	 7.3331	 7.6323	0
301	35	5	1	12	335.6261	56	1	800	20957.1670	 0.0007	 7.6497	 8.4664	 9.1832	 9.5198	0
301	35	6	1	12	332.4722	56	1	800	20957.1670	 0.0007	 9.5330	10.3498	11.0664	11.4000	0
301	35	7	1	12	369.8355	29	1	800	20957.1670	 0.0007	11.4164	12.2331	12.9498	13.3206	0
301	35	8	1	12	420.3065	29	1	800	20957.1670	 0.0007	13.3331	14.1497	14.8665	15.2879	0
301	35	9	1	12	381.8632	56	1	800	20957.1670	 0.0007	15.2997	16.1165	16.8331	17.2161	0
301	35	10	1	12	320.5035	56	1	800	20957.1670	 0.0007	17.2331	18.0498	18.7665	19.0882	0
301	35	11	1	12	334.5525	29	1	800	20957.1670	 0.0007	19.0997	19.9164	20.6330	20.9686	0
301	35	12	1	12	322.4575	29	1	800	20957.1670	 0.0007	20.9830	21.7997	22.5165	22.8400	0
301	36	1	1	12	333.5632	29	1	800	20997.2502	 0.0007	 0.0121	 0.8288	 1.5454	 1.8801	0
301	36	2	1	12	321.7835	29	1	800	20997.2502	 0.0007	 1.8954	 2.7121	 3.4288	 3.7517	0
301	36	3	1	12	335.4141	29	1	800	20997.2502	 0.0007	 3.7620	 4.5787	 5.2954	 5.6319	0
301	36	4	1	12	371.6899	29	1	800	20997.2502	 0.0007	 5.6454	 6.4622	 7.1788	 7.5519	0
301	36	5	1	12	375.0992	56	1	800	20997.2502	 0.0007	 7.5621	 8.3787	 9.0954	 9.4717	0
301	36	6	1	12	330.4242	29	1	800	20997.2502	 0.0007	 9.4787	10.2954	11.0121	11.3436	0
301	36	7	1	12	295.7621	56	1	800	20997.2502	 0.0007	11.3621	12.1787	12.8954	13.1922	0
301	36	8	1	12	333.0525	29	1	800	20997.2502	 0.0007	13.2121	14.0288	14.7454	15.0795	0
301	36	9	1	12	321.8714	56	1	800	20997.2502	 0.0007	15.0954	15.9121	16.6288	16.9517	0
301	36	10	1	12	351.2299	29	1	800	20997.2502	 0.0007	16.9620	17.7788	18.4955	18.8478	0
301	36	11	1	12	291.1263	56	1	800	20997.2502	 0.0007	18.8621	19.6788	20.3955	20.6877	0
301	36	12	1	12	337.7999	29	1	800	20997.2502	 0.0007	20.6954	21.5121	22.2289	22.5677	0
301	36	13	1	12	311.2016	56	1	800	20997.2502	 0.0007	22.5787	23.3955	24.1121	24.4243	0
301	36	14	1	12	340.3439	56	1	800	20997.2502	 0.0007	24.4454	25.2621	25.9788	26.3201	0
301	36	15	1	12	360.3909	29	1	800	20997.2502	 0.0007	26.3287	27.1455	27.8621	28.2235	0
301	36	16	1	12	323.7281	56	1	800	20997.2502	 0.0007	28.2454	29.0621	29.7788	30.1036	0
301	36	17	1	12	337.8769	29	1	800	20997.2502	 0.0007	30.1120	30.9288	31.6454	31.9843	0
301	36	18	1	12	310.0800	56	1	800	20997.2502	 0.0007	31.9954	32.8121	33.5287	33.8398	0
301	36	19	1	12	411.1215	56	1	800	20997.2502	 0.0007	33.8620	34.6788	35.3955	35.8077	0
301	36	20	1	12	316.3536	56	1	800	20997.2502	 0.0007	35.8287	36.6455	37.3622	37.6796	0
301	36	21	1	12	402.5209	29	1	800	20997.2502	 0.0007	37.6954	38.5121	39.2288	39.6324	0
301	36	22	1	12	483.7918	29	1	800	20997.2502	 0.0007	39.6454	40.4621	41.1788	41.6636	0
301	36	23	1	12	330.6002	56	1	800	20997.2502	 0.0007	41.6787	42.4954	43.2121	43.5444	0
301	36	24	1	12	303.2357	56	1	800	20997.2502	 0.0007	43.5621	44.3787	45.0954	45.3998	0
301	36	25	1	12	317.0141	56	1	800	20997.2502	 0.0007	45.4120	46.2288	46.9455	47.2637	0
301	36	26	1	12	347.1121	56	1	800	20997.2502	 0.0007	47.2787	48.0954	48.8121	49.1602	0
301	36	27	1	12	319.2050	56	1	800	20997.2502	 0.0007	49.1787	49.9954	50.7121	51.0323	0
301	36	28	1	12	315.8767	56	1	800	20997.2502	 0.0007	51.0454	51.8621	52.5787	52.8956	0
301	36	29	1	12	361.0521	56	1	800	20997.2502	 0.0007	52.9121	53.7288	54.4455	54.8076	0
301	36	30	1	12	428.4154	29	1	800	20997.2502	 0.0007	54.8288	55.6455	56.3620	56.7914	0
301	37	1	1	13	365.1725	56	1	800	21061.7002	 0.0007	 0.0041	 0.8208	 1.5375	 1.9038	0
301	37	2	1	13	553.0978	56	1	800	21061.7002	 0.0007	 1.9208	 2.7375	 3.4542	 4.0083	0
301	37	3	1	13	317.0364	56	1	800	21061.7002	 0.0007	 4.0208	 4.8375	 5.5542	 5.8722	0
301	37	4	1	13	353.7155	56	1	800	21061.7002	 0.0007	 5.8875	 6.7041	 7.4209	 7.7757	0
301	37	5	1	13	446.1845	29	1	800	21061.7002	 0.0007	 7.7875	 8.6042	 9.3208	 9.7681	0
301	37	6	1	13	429.7263	29	1	800	21061.7002	 0.0007	 9.7875	10.6042	11.3208	11.7520	0
301	37	7	1	13	303.1279	56	1	800	21061.7002	 0.0007	11.7708	12.5878	13.3042	13.6083	0
301	37	8	1	13	397.1882	29	1	800	21061.7002	 0.0007	13.6208	14.4375	15.1541	15.5523	0
301	37	9	1	13	430.2808	29	1	800	21061.7002	 0.0007	15.5708	16.3875	17.1043	17.5357	0
301	37	10	1	13	335.1677	56	1	800	21061.7002	 0.0007	17.5541	18.3709	19.0875	19.4238	0
301	37	11	1	13	379.8221	29	0	800	21061.7002	 0.0007	19.4375	20.2542	20.9709	21.3518	0
301	37	12	1	13	356.4399	56	1	800	21061.7002	 0.0007	 0.0216	 0.8384	 1.5551	 1.9125	0
301	37	1	2	13	318.4962	56	1	800	21061.7002	 0.0007	 0.0192	 0.8359	 1.5526	 1.8720	 1.9155
301	37	2	2	13	387.0307	29	1	800	21061.7002	 0.0007	 1.8859	 2.7027	 3.4193	 3.8074	 1.9155
301	37	3	2	13	470.5394	29	1	800	21061.7002	 0.0007	 3.8192	 4.6360	 5.3527	 5.8242	 1.9155
301	37	4	2	13	292.9628	56	1	800	21061.7002	 0.0007	 5.8359	 6.6527	 7.3694	 7.6634	 1.9155
301	37	5	2	13	436.0313	29	1	800	21061.7002	 0.0007	 7.6692	 8.4860	 9.2026	 9.6398	 1.9155
301	37	6	2	13	348.7868	29	1	800	21061.7002	 0.0007	 9.6525	10.4693	11.1860	11.5359	 1.9155
301	37	7	2	13	329.1477	56	1	800	21061.7002	 0.0007	11.5526	12.3693	13.0860	13.4161	 1.9155
301	37	8	2	13	317.7395	56	1	800	21061.7002	 0.0007	13.4359	14.2527	14.9693	15.2880	 1.9155
301	37	9	2	13	386.2341	56	1	800	21061.7002	 0.0007	15.3026	16.1193	16.8360	17.2233	 1.9155
301	37	10	2	13	309.1944	56	1	800	21061.7002	 0.0007	17.2359	18.0526	18.7693	19.0796	 1.9155
301	37	11	2	13	379.5095	56	1	800	21061.7002	 0.0007	19.0859	19.9026	20.6193	20.9999	 1.9155
301	37	12	2	13	397.7657	56	1	800	21061.7002	 0.0007	21.0192	21.8360	22.5526	22.9514	 1.9155
301	38	1	1	13	699.3355	1	0	800	21127.3002	 0.0007	 0.0159	 0.8327	 1.5493	 2.2495	0
301	38	2	1	13	453.7393	29	1	800	21127.3002	 0.0007	 0.0205	 0.8373	 1.5539	 2.0086	0
301	38	3	1	13	437.2458	56	1	800	21127.3002	 0.0007	 2.0205	 2.8373	 3.5540	 3.9923	0
301	38	4	1	13	302.1695	56	1	800	21127.3002	 0.0007	 4.0038	 4.8205	 5.5372	 5.8404	0
301	38	5	1	13	412.5117	29	0	800	21127.3002	 0.0007	 5.8538	 6.6706	 7.3872	 7.8008	0
301	38	6	1	13	379.5546	56	1	800	21127.3002	 0.0007	 0.0213	 0.8380	 1.5548	 1.9355	0
301	38	7	1	13	326.5238	56	1	800	21127.3002	 0.0007	 1.9547	 2.7714	 3.4880	 3.8157	0
301	38	8	1	13	315.1171	56	1	800	21127.3002	 0.0007	 3.8380	 4.6548	 5.3714	 5.6875	0
301	38	9	1	13	384.5688	29	1	800	21127.3002	 0.0007	 5.7046	 6.5214	 7.2380	 7.6237	0
301	38	10	1	13	515.7856	29	1	800	21127.3002	 0.0007	 7.6380	 8.4548	 9.1713	 9.6880	0
301	38	11	1	13	312.2801	56	1	800	21127.3002	 0.0007	 9.7046	10.5214	11.2381	11.5514	0
301	38	12	1	13	326.3896	56	1	800	21127.3002	 0.0007	11.5713	12.3880	13.1047	13.4321	0
301	38	13	1	13	323.0088	56	1	800	21127.3002	 0.0007	13.4380	14.2546	14.9713	15.2954	0
301	38	14	1	13	304.7703	56	1	800	21127.3002	 0.0007	15.3046	16.1213	16.8381	17.1440	0
301	38	15	1	13	366.3636	29	1	800	21127.3002	 0.0007	17.1546	17.9714	18.6881	19.0555	0
301	38	16	1	13	257.7829	56	1	800	21127.3002	 0.0007	19.0713	19.8880	20.6047	20.8635	0
301	38	17	1	13	345.7917	29	1	800	21127.3002	 0.0007	20.8713	21.6880	22.4048	22.7517	0
301	38	18	1	13	342.4921	29	1	800	21127.3002	 0.0007	22.7713	23.5881	24.3046	24.6481	0
301	38	19	1	13	346.3309	29	1	800	21127.3002	 0.0007	24.6546	25.4714	26.1881	26.5355	0
301	38	20	1	13	302.3545	56	1	800	21127.3002	 0.0007	26.5546	27.3714	28.0880	28.3913	0
301	38	21	1	13	316.8648	29	1	800	21127.3002	 0.0007	28.4046	29.2213	29.9380	30.2559	0
301	38	22	1	13	330.1278	29	1	800	21127.3002	 0.0007	30.2713	31.0880	31.8047	32.1359	0
301	38	23	1	13	343.1401	56	1	800	21127.3002	 0.0007	32.1547	32.9714	33.6880	34.0321	0
301	38	24	1	13	307.7508	56	1	800	21127.3002	 0.0007	34.0380	34.8547	35.5713	35.8801	0
301	38	25	1	13	353.1756	56	1	800	21127.3002	 0.0007	35.8880	36.7047	37.4214	37.7758	0
301	38	26	1	13	357.9058	29	1	800	21127.3002	 0.0007	37.7880	38.6047	39.3213	39.6803	0
301	38	27	1	13	352.9128	29	1	800	21127.3002	 0.0007	39.6880	40.5046	41.2214	41.5754	0
301	38	28	1	13	333.2803	56	1	800	21127.3002	 0.0007	41.5880	42.4047	43.1214	43.4558	0
301	38	29	1	13	354.4948	29	1	800	21127.3002	 0.0007	43.4713	44.2880	45.0047	45.3602	0
301	38	30	1	13	374.5648	29	1	800	21127.3002	 0.0007	45.3713	46.1881	46.9048	47.2803	0
301	39	1	1	13	335.7417	29	1	800	21189.5335	 0.0007	 0.0098	 0.8265	 1.5431	 1.8798	0
301	39	2	1	13	396.5387	29	1	800	21189.5335	 0.0007	 1.8931	 2.7098	 3.4265	 3.8240	0
301	39	3	1	13	613.9617	56	1	800	21189.5335	 0.0007	 3.8431	 4.6598	 5.3765	 5.9916	0
301	39	4	1	13	415.5072	29	1	800	21189.5335	 0.0007	 6.0098	 6.8265	 7.5432	 7.9598	0
301	39	5	1	13	328.5855	56	1	800	21189.5335	 0.0007	 7.9765	 8.7934	 9.5099	 9.8396	0
301	39	6	1	13	462.0415	29	1	800	21189.5335	 0.0007	 9.8598	10.6765	11.3931	11.8562	0
301	39	7	1	13	332.9171	56	1	800	21189.5335	 0.0007	11.8764	12.6931	13.4099	13.7438	0
301	39	8	1	13	432.9512	29	1	800	21189.5335	 0.0007	13.7598	14.5765	15.2933	15.7272	0
301	39	9	1	13	345.6509	56	1	800	21189.5335	 0.0007	15.7431	16.5598	17.2766	17.6232	0
301	39	10	1	13	309.7986	56	1	800	21189.5335	 0.0007	17.6431	18.4599	19.1765	19.4872	0
301	39	11	1	13	339.5532	29	1	800	21189.5335	 0.0007	19.4931	20.3099	21.0266	21.3676	0
301	39	12	1	13	368.8189	29	1	800	21189.5335	 0.0007	21.3765	22.1932	22.9098	23.2797	0
301	40	1	1	14	305.1680	56	1	800	21220.7836	 0.0007	 0.0166	 0.8332	 1.5499	 1.8567	0
301	40	2	1	14	319.3891	56	1	800	21220.7836	 0.0007	 1.8665	 2.6832	 3.4000	 3.7206	0
301	40	3	1	14	292.4095	56	1	800	21220.7836	 0.0007	 3.7332	 4.5500	 5.2665	 5.5600	0
301	40	4	1	14	427.8347	29	1	800	21220.7836	 0.0007	 5.5665	 6.3833	 7.0999	 7.5287	0
301	40	5	1	14	300.4421	56	1	800	21220.7836	 0.0007	 7.5499	 8.3666	 9.0832	 9.3846	0
301	40	6	1	14	337.7572	56	1	800	21220.7836	 0.0007	 9.3998	10.2165	10.9332	11.2720	0
301	40	7	1	14	390.8029	29	1	800	21220.7836	 0.0007	11.2832	12.0999	12.8165	13.2084	0
301	40	8	1	14	329.1474	56	1	800	21220.7836	 0.0007	13.2165	14.0332	14.7499	15.0801	0
301	40	9	1	14	349.7395	29	1	800	21220.7836	 0.0007	15.0998	15.9166	16.6332	16.9840	0
301	40	10	1	14	433.6730	29	1	800	21220.7836	 0.0007	16.9998	17.8166	18.5333	18.9682	0
301	40	11	1	14	290.4547	56	1	800	21220.7836	 0.0007	18.9832	19.7999	20.5166	20.8081	0
301	40	12	1	14	337.8434	56	1	800	21220.7836	 0.0007	20.8165	21.6333	22.3499	22.6888	0
301	40	13	1	14	381.9804	29	1	800	21220.7836	 0.0007	22.6998	23.5166	24.2332	24.6163	0
301	40	14	1	14	401.1028	29	1	800	21220.7836	 0.0007	24.6332	25.4499	26.1666	26.5687	0
301	40	15	1	14	338.7541	56	1	800	21220.7836	 0.0007	26.5832	27.3999	28.1165	28.4564	0
301	40	16	1	14	375.0203	56	1	800	21220.7836	 0.0007	28.4665	29.2832	29.9999	30.3760	0
301	40	17	1	14	338.8436	29	1	800	21220.7836	 0.0007	30.3831	31.1999	31.9165	32.2564	0
301	40	18	1	14	487.7123	56	0	800	21220.7836	 0.0007	32.2666	33.0832	33.7999	34.2885	0
301	40	19	1	14	425.4150	29	1	800	21220.7836	 0.0007	 0.0084	 0.8252	 1.5419	 1.9684	0
301	40	20	1	14	618.4575	56	0	800	21220.7836	 0.0007	 1.9751	 2.7918	 3.5085	 4.1280	0
301	40	21	1	14	384.0737	29	1	800	21220.7836	 0.0007	 0.0098	 0.8264	 1.5431	 1.9284	0
301	40	22	1	14	474.4307	29	1	800	21220.7836	 0.0007	 1.9431	 2.7597	 3.4765	 3.9522	0
301	40	23	1	14	522.3933	29	1	800	21220.7836	 0.0007	 3.9597	 4.7765	 5.4932	 6.0165	0
301	40	24	1	14	359.7773	29	1	800	21220.7836	 0.0007	 6.0264	 6.8432	 7.5598	 7.9205	0
301	40	25	1	14	379.0689	29	1	800	21220.7836	 0.0007	 7.9264	 8.7432	 9.4598	 9.8399	0
301	40	26	1	14	349.6132	56	1	800	21220.7836	 0.0007	 9.8597	10.6765	11.3931	11.7440	0
301	40	27	1	14	321.6231	56	1	800	21220.7836	 0.0007	11.7598	12.5765	13.2931	13.6158	0
301	40	28	1	14	327.1751	56	1	800	21220.7836	 0.0007	13.6264	14.4433	15.1598	15.4881	0
301	40	29	1	14	291.8650	56	1	800	21220.7836	 0.0007	15.5097	16.3265	17.0432	17.3362	0
301	40	30	1	14	442.9106	29	1	800	21220.7836	 0.0007	17.3431	18.1599	18.8764	19.3204	0
301	41	1	1	14	446.2175	29	1	800	21289.7336	 0.0007	 0.0182	 0.8350	 1.5516	 1.9990	0
301	41	2	1	14	430.5150	29	1	800	21289.7336	 0.0007	 2.0182	 2.8350	 3.5516	 3.9832	0
301	41	3	1	14	399.0381	56	1	800	21289.7336	 0.0007	 4.0016	 4.8183	 5.5349	 5.9349	0
301	41	4	1	14	361.0105	29	1	800	21289.7336	 0.0007	 5.9516	 6.7683	 7.4850	 7.8470	0
301	41	5	1	14	316.3589	56	1	800	21289.7336	 0.0007	 7.8682	 8.6850	 9.4016	 9.7192	0
301	41	6	1	14	361.9081	29	1	800	21289.7336	 0.0007	 9.7349	10.5517	11.2683	11.6313	0
301	41	7	1	14	333.2366	29	1	800	21289.7336	 0.0007	11.6516	12.4683	13.1850	13.5193	0
301	41	8	1	14	290.4981	56	1	800	21289.7336	 0.0007	13.5349	14.3516	15.0683	15.3599	0
301	41	9	1	14	328.2822	56	1	800	21289.7336	 0.0007	15.3682	16.1849	16.9017	17.2310	0
301	41	10	1	14	324.8910	56	1	800	21289.7336	 0.0007	17.2516	18.0683	18.7851	19.1111	0
301	41	11	1	14	362.6876	29	1	800	21289.7336	 0.0007	19.1182	19.9349	20.6516	21.0153	0
301	41	12	1	14	333.7374	56	1	800	21289.7336	 0.0007	21.0349	21.8517	22.5684	22.9032	0
301	42	1	1	14	493.2190	29	1	800	21325.3669	 0.0010	 0.0041	 0.8208	 1.5375	 2.0318	0
301	42	2	1	14	315.9791	56	1	800	21325.3669	 0.0010	 2.0374	 2.8541	 3.5708	 3.8879	0
301	42	3	1	14	337.0624	56	1	800	21325.3669	 0.0010	 3.9041	 4.7207	 5.4374	 5.7756	0
301	42	4	1	14	341.9682	29	1	800	21325.3669	 0.0010	 5.7874	 6.6041	 7.3207	 7.6638	0
301	42	5	1	14	290.2096	56	1	800	21325.3669	 0.0010	 7.6709	 8.4874	 9.2042	 9.4954	0
301	42	6	1	14	313.7767	56	1	800	21325.3669	 0.0010	 9.5040	10.3208	11.0375	11.3523	0
301	42	7	1	14	318.4679	29	1	800	21325.3669	 0.0010	11.3707	12.1874	12.9041	13.2236	0
301	42	8	1	14	356.1145	29	1	800	21325.3669	 0.0010	13.2374	14.0541	14.7708	15.1280	0
301	42	9	1	14	304.2346	56	1	800	21325.3669	 0.0010	15.1374	15.9541	16.6709	16.9761	0
301	42	10	1	14	350.5104	29	1	800	21325.3669	 0.0010	16.9874	17.8041	18.5208	18.8722	0
301	42	11	1	14	305.6481	56	1	800	21325.3669	 0.0010	18.8874	19.7041	20.4208	20.7275	0
301	42	12	1	14	344.0291	29	1	800	21325.3669	 0.0010	20.7374	21.5541	22.2708	22.6160	0
301	42	13	1	14	283.7180	56	1	800	21325.3669	 0.0010	22.6374	23.4541	24.1708	24.4559	0
301	42	14	1	14	370.4239	56	1	800	21325.3669	 0.0010	24.4707	25.2874	26.0042	26.3757	0
301	42	15	1	14	325.6308	56	1	800	21325.3669	 0.0010	26.3874	27.2041	27.9208	28.2474	0
301	42	16	1	14	339.7694	29	1	800	21325.3669	 0.0010	28.2540	29.0708	29.7875	30.1284	0
301	42	17	1	14	368.3640	29	1	800	21325.3669	 0.0010	30.1374	30.9541	31.6708	32.0401	0
301	42	18	1	14	362.9586	29	1	800	21325.3669	 0.0010	32.0541	32.8708	33.5875	33.9515	0
301	42	19	1	14	367.0570	56	1	800	21325.3669	 0.0010	33.9708	34.7875	35.5041	35.8721	0
301	42	20	1	14	314.4215	56	1	800	21325.3669	 0.0010	35.8874	36.7041	37.4209	37.7366	0
301	42	21	1	14	367.1080	29	1	800	21325.3669	 0.0010	37.7541	38.5708	39.2875	39.6557	0
301	42	22	1	14	315.1363	56	1	800	21325.3669	 0.0010	39.6707	40.4875	41.2041	41.5202	0
301	42	23	1	14	368.5385	29	1	800	21325.3669	 0.0010	41.5374	42.3541	43.0708	43.4404	0
301	42	24	1	14	315.3654	56	1	800	21325.3669	 0.0010	43.4540	44.2708	44.9875	45.3040	0
301	42	25	1	14	344.6865	29	1	800	21325.3669	 0.0010	45.3207	46.1375	46.8542	47.1999	0
301	42	26	1	14	324.4248	56	1	800	21325.3669	 0.0010	47.2207	48.0375	48.7542	49.0797	0
301	42	27	1	14	306.3154	56	1	800	21325.3669	 0.0010	49.0874	49.9042	50.6208	50.9281	0
301	42	28	1	14	352.5823	56	1	800	21325.3669	 0.0010	50.9374	51.7541	52.4707	52.8243	0
301	42	29	1	14	332.5373	56	1	800	21325.3669	 0.0010	52.8374	53.6541	54.3708	54.7043	0
301	42	30	1	14	312.5425	56	1	800	21325.3669	 0.0010	54.7207	55.5374	56.2542	56.5678	0
301	43	1	1	15	326.4151	56	1	800	21388.3836	 0.0007	 0.0107	 0.8274	 1.5441	 1.8717	0
301	43	2	1	15	339.1835	56	1	800	21388.3836	 0.0007	 1.8941	 2.7107	 3.4274	 3.7676	0
301	43	3	1	15	336.4851	29	1	800	21388.3836	 0.0007	 3.7774	 4.5941	 5.3108	 5.6483	0
301	43	4	1	15	381.2124	56	1	800	21388.3836	 0.0007	 5.6607	 6.4775	 7.1941	 7.5763	0
301	43	5	1	15	279.8797	56	1	800	21388.3836	 0.0007	 7.5941	 8.4108	 9.1275	 9.4084	0
301	43	6	1	15	310.5327	56	1	800	21388.3836	 0.0007	 9.4274	10.2441	10.9608	11.2723	0
301	43	7	1	15	291.4629	56	1	800	21388.3836	 0.0007	11.2940	12.1108	12.8275	13.1200	0
301	43	8	1	15	337.8265	29	1	800	21388.3836	 0.0007	13.1274	13.9442	14.6608	14.9996	0
301	43	9	1	15	343.1566	29	1	800	21388.3836	 0.0007	15.0107	15.8274	16.5441	16.8881	0
301	43	10	1	15	315.0367	56	1	800	21388.3836	 0.0007	16.8941	17.7108	18.4274	18.7435	0
301	43	11	1	15	304.4040	56	1	800	21388.3836	 0.0007	18.7609	19.5774	20.2941	20.5995	0
301	43	12	1	15	430.5637	29	1	800	21388.3836	 0.0007	20.6113	21.4275	22.1441	22.5757	0
301	44	1	1	15	376.3470	29	1	800	21419.4002	 0.0007	 0.0087	 0.8253	 1.5421	 1.9195	0
301	44	2	1	15	315.3223	56	1	800	21419.4002	 0.0007	 1.9426	 2.7588	 3.4756	 3.7925	0
301	44	3	1	15	304.4835	56	1	800	21419.4002	 0.0007	 3.8088	 4.6254	 5.3421	 5.6477	0
301	44	4	1	15	295.1366	56	1	800	21419.4002	 0.0007	 5.6587	 6.4754	 7.1921	 7.4882	0
301	44	5	1	15	260.5207	56	1	800	21419.4002	 0.0007	 7.5087	 8.3254	 9.0420	 9.3036	0
301	44	6	1	15	275.6784	56	1	800	21419.4002	 0.0007	 9.3254	10.1421	10.8587	11.1356	0
301	44	7	1	15	371.7169	29	1	800	21419.4002	 0.0007	11.1420	11.9587	12.6754	13.0480	0
301	44	8	1	15	430.7000	29	1	800	21419.4002	 0.0007	13.0587	13.8754	14.5920	15.0238	0
301	44	9	1	15	367.2407	29	1	800	21419.4002	 0.0007	15.0421	15.8587	16.5754	16.9437	0
301	44	10	1	15	298.4076	56	1	800	21419.4002	 0.0007	16.9587	17.7754	18.4921	18.7916	0
301	44	11	1	15	337.2137	56	1	800	21419.4002	 0.0007	18.8087	19.6254	20.3420	20.6802	0
301	44	12	1	15	349.2429	29	1	800	21419.4002	 0.0007	20.6920	21.5087	22.2255	22.5758	0
301	44	13	1	15	353.1679	29	1	800	21419.4002	 0.0007	22.5920	23.4087	24.1254	24.4797	0
301	44	14	1	15	437.6756	29	1	800	21419.4002	 0.0007	24.4920	25.3088	26.0255	26.4641	0
301	44	15	1	15	310.4569	56	1	800	21419.4002	 0.0007	26.4753	27.2920	28.0087	28.3201	0
301	44	16	1	15	307.1422	56	1	800	21419.4002	 0.0007	28.3420	29.1588	29.8754	30.1836	0
301	44	17	1	15	264.9560	56	1	800	21419.4002	 0.0007	30.1920	31.0087	31.7254	31.9915	0
301	44	18	1	15	297.1151	29	1	800	21419.4002	 0.0007	32.0086	32.8254	33.5421	33.8404	0
301	44	19	1	15	350.5498	29	1	800	21419.4002	 0.0007	33.8588	34.6754	35.3920	35.7436	0
301	44	20	1	15	402.2946	56	0	800	21419.4002	 0.0007	35.7587	36.5753	37.2921	37.6954	0
301	44	21	1	15	624.2195	29	1	800	21419.4002	 0.0007	 0.0091	 0.8258	 1.5425	 2.1678	0
301	44	22	1	15	329.0450	56	1	800	21419.4002	 0.0007	 2.1758	 2.9924	 3.7092	 4.0392	0
301	44	23	1	15	342.3835	29	1	800	21419.4002	 0.0007	 4.0591	 4.8758	 5.5924	 5.9358	0
301	44	24	1	15	346.4187	56	1	800	21419.4002	 0.0007	 5.9424	 6.7592	 7.4758	 7.8233	0
301	44	25	1	15	390.5002	29	1	800	21419.4002	 0.0007	 7.8425	 8.6591	 9.3758	 9.7674	0
301	44	26	1	15	305.6036	56	1	800	21419.4002	 0.0007	 9.7757	10.5924	11.3092	11.6158	0
301	44	27	1	15	359.2561	29	1	800	21419.4002	 0.0007	11.6258	12.4424	13.1591	13.5195	0
301	44	28	1	15	395.0570	29	1	800	21419.4002	 0.0007	13.5257	14.3425	15.0591	15.4554	0
301	44	29	1	15	325.2337	56	1	800	21419.4002	 0.0007	15.4758	16.2925	17.0092	17.3357	0
301	44	30	1	15	338.3938	56	1	800	21419.4002	 0.0007	17.3424	18.1591	18.8757	19.2154	0
301	45	1	1	15	313.0255	56	1	800	21481.2002	 0.0007	 0.0163	 0.8330	 1.5498	 1.8637	0
301	45	2	1	15	405.6640	29	1	800	21481.2002	 0.0007	 1.8830	 2.6997	 3.4164	 3.8230	0
301	45	3	1	15	400.3673	29	1	800	21481.2002	 0.0007	 3.8330	 4.6497	 5.3664	 5.7677	0
301	45	4	1	15	337.7699	29	1	800	21481.2002	 0.0007	 5.7830	 6.5997	 7.3165	 7.6553	0
301	45	5	1	15	334.5311	56	1	800	21481.2002	 0.0007	 7.6663	 8.4831	 9.1998	 9.5356	0
301	45	6	1	15	419.3768	29	1	800	21481.2002	 0.0007	 9.5497	10.3664	11.0830	11.5034	0
301	45	7	1	15	373.2484	29	1	800	21481.2002	 0.0007	11.5163	12.3330	13.0497	13.4239	0
301	45	8	1	15	320.3512	56	1	800	21481.2002	 0.0007	13.4330	14.2497	14.9664	15.2877	0
301	45	9	1	15	341.0410	56	1	800	21481.2002	 0.0007	15.2996	16.1163	16.8331	17.1751	0
301	45	10	1	15	330.3362	56	1	800	21481.2002	 0.0007	17.1829	17.9997	18.7164	19.0477	0
301	45	11	1	15	302.3506	56	1	800	21481.2002	 0.0007	19.0663	19.8830	20.5997	20.9031	0
301	45	12	1	15	364.3971	29	1	800	21481.2002	 0.0007	20.9163	21.7331	22.4497	22.8152	0
301	46	1	1	16	403.8345	29	1	800	21521.4002	 0.0007	 0.0049	 0.8217	 1.5383	 1.9431	0
301	46	2	1	16	333.9388	56	1	800	21521.4002	 0.0007	 1.9550	 2.7716	 3.4883	 3.8233	0
301	46	3	1	16	338.4103	56	1	800	21521.4002	 0.0007	 3.8384	 4.6550	 5.3716	 5.7114	0
301	46	4	1	16	375.7512	56	1	800	21521.4002	 0.0007	 5.7216	 6.5383	 7.2550	 7.6318	0
301	46	5	1	16	346.4217	29	1	800	21521.4002	 0.0007	 7.6382	 8.4550	 9.1717	 9.5191	0
301	46	6	1	16	342.4958	56	1	800	21521.4002	 0.0007	 9.5383	10.3550	11.0716	11.4151	0
301	46	7	1	16	363.0940	56	1	800	21521.4002	 0.0007	11.4216	12.2383	12.9549	13.3191	0
301	46	8	1	16	326.2759	56	1	800	21521.4002	 0.0007	13.3383	14.1550	14.8717	15.1990	0
301	46	9	1	16	404.2505	29	1	800	21521.4002	 0.0007	15.2049	16.0217	16.7382	17.1436	0
301	46	10	1	16	381.7960	29	1	800	21521.4002	 0.0007	17.1549	17.9716	18.6883	19.0712	0
301	46	11	1	16	336.6959	56	1	800	21521.4002	 0.0007	19.0882	19.9050	20.6216	20.9594	0
301	46	12	1	16	325.3933	56	1	800	21521.4002	 0.0007	20.9716	21.7883	22.5049	22.8314	0
301	46	13	1	16	339.4546	56	1	800	21521.4002	 0.0007	22.8382	23.6549	24.3717	24.7126	0
301	46	14	1	16	327.1661	56	1	800	21521.4002	 0.0007	24.7216	25.5382	26.2550	26.5832	0
301	46	15	1	16	347.8604	56	1	800	21521.4002	 0.0007	26.6049	27.4217	28.1383	28.4873	0
301	46	16	1	16	343.7708	56	1	800	21521.4002	 0.0007	28.5049	29.3217	30.0384	30.3834	0
301	46	17	1	16	284.0952	56	1	800	21521.4002	 0.0007	30.4050	31.2217	31.9383	32.2235	0
301	46	18	1	16	354.6502	29	1	800	21521.4002	 0.0007	32.2383	33.0550	33.7717	34.1274	0
301	46	19	1	16	382.5512	29	1	800	21521.4002	 0.0007	34.1382	34.9551	35.6716	36.0553	0
301	46	20	1	16	337.4016	56	1	800	21521.4002	 0.0007	36.0716	36.8884	37.6049	37.9434	0
301	46	21	1	16	357.7062	56	1	800	21521.4002	 0.0007	37.9549	38.7716	39.4882	39.8470	0
301	46	22	1	16	322.9419	56	1	800	21521.4002	 0.0007	39.8549	40.6717	41.3883	41.7125	0
301	46	23	1	16	367.1574	29	1	800	21521.4002	 0.0007	41.7216	42.5383	43.2549	43.6231	0
301	46	24	1	16	458.2658	29	1	800	21521.4002	 0.0007	43.6382	44.4549	45.1717	45.6311	0
301	46	25	1	16	330.4437	56	1	800	21521.4002	 0.0007	45.6382	46.4550	47.1717	47.5032	0
301	46	26	1	16	335.8563	29	1	800	21521.4002	 0.0007	47.5216	48.3385	49.0550	49.3920	0
301	46	27	1	16	380.3957	29	1	800	21521.4002	 0.0007	49.4049	50.2216	50.9383	51.3196	0
301	46	28	1	16	382.7782	29	1	800	21521.4002	 0.0007	51.3383	52.1550	52.8717	53.2555	0
301	46	29	1	16	505.1404	56	1	800	21521.4002	 0.0007	53.2716	54.0883	54.8050	55.3113	0
301	46	30	1	16	383.8105	29	1	800	21521.4002	 0.0007	55.3216	56.1383	56.8550	57.2398	0
301	47	1	1	16	349.0288	56	1	800	21584.9006	 0.0010	 0.0041	 0.8208	 1.5375	 1.8877	0
301	47	2	1	16	393.5094	56	1	800	21584.9006	 0.0010	 1.9041	 2.7208	 3.4375	 3.8320	0
301	47	3	1	16	347.8633	29	1	800	21584.9006	 0.0010	 3.8541	 4.6709	 5.3875	 5.7364	0
301	47	4	1	16	408.0608	29	1	800	21584.9006	 0.0010	 5.7541	 6.5708	 7.2875	 7.6966	0
301	47	5	1	16	345.8574	56	1	800	21584.9006	 0.0010	 7.7041	 8.5208	 9.2374	 9.5843	0
301	47	6	1	16	389.4322	56	1	800	21584.9006	 0.0010	 9.6041	10.4208	11.1375	11.5281	0
301	47	7	1	16	360.5461	29	1	800	21584.9006	 0.0010	11.5374	12.3542	13.0708	13.4323	0
301	47	8	1	16	387.5472	56	1	800	21584.9006	 0.0010	13.4541	14.2708	14.9874	15.3761	0
301	47	9	1	16	358.6207	29	1	800	21584.9006	 0.0010	15.3874	16.2042	16.9207	17.2804	0
301	47	10	1	16	306.4611	56	1	800	21584.9006	 0.0010	17.2874	18.1042	18.8208	19.1283	0
301	47	11	1	16	344.3551	29	1	800	21584.9006	 0.0010	19.1374	19.9542	20.6708	21.0161	0
301	47	12	1	16	339.8942	29	1	800	21584.9006	 0.0010	21.0375	21.8541	22.5709	22.9119	0
301	48	1	1	16	413.9029	56	1	800	21632.1502	 0.0007	 0.0119	 0.8286	 1.5453	 1.9602	0
301	48	2	1	16	318.3426	56	1	800	21632.1502	 0.0007	 1.9786	 2.7954	 3.5120	 3.8315	0
301	48	3	1	16	347.8049	56	1	800	21632.1502	 0.0007	 3.8453	 4.6620	 5.3787	 5.7275	0
301	48	4	1	16	407.6210	29	1	800	21632.1502	 0.0007	 5.7453	 6.5619	 7.2787	 7.6873	0
301	48	5	1	16	314.8197	56	1	800	21632.1502	 0.0007	 7.6952	 8.5120	 9.2286	 9.5446	0
301	48	6	1	16	351.0756	56	1	800	21632.1502	 0.0007	 9.5620	10.3786	11.0953	11.4473	0
301	48	7	1	16	451.4617	56	1	800	21632.1502	 0.0007	11.4619	12.2787	12.9953	13.4479	0
301	48	8	1	16	411.6675	29	1	800	21632.1502	 0.0007	13.4619	14.2787	14.9953	15.4079	0
301	48	9	1	16	292.4308	56	1	800	21632.1502	 0.0007	15.4286	16.2453	16.9620	17.2556	0
301	48	10	1	16	371.0551	56	1	800	21632.1502	 0.0007	17.2619	18.0787	18.7953	19.1674	0
301	48	11	1	16	366.3853	56	1	800	21632.1502	 0.0007	19.1786	19.9954	20.7119	21.0793	0
301	48	12	1	16	529.8615	29	1	800	21632.1502	 0.0007	21.0953	21.9120	22.6287	23.1596	0
301	48	13	1	16	463.4939	29	1	800	21632.1502	 0.0007	23.1786	23.9953	24.7119	25.1768	0
301	48	14	1	16	325.7968	56	1	800	21632.1502	 0.0007	25.1952	26.0120	26.7287	27.0556	0
301	48	15	1	16	411.4937	56	1	800	21632.1502	 0.0007	27.0619	27.8787	28.5953	29.0079	0
301	48	16	1	16	437.1429	29	1	800	21632.1502	 0.0007	29.0286	29.8454	30.5620	31.0000	0
301	48	17	1	16	349.4173	29	1	800	21632.1502	 0.0007	31.0119	31.8286	32.5452	32.8957	0
301	48	18	1	16	353.9445	29	1	800	21632.1502	 0.0007	32.9119	33.7286	34.4453	34.8002	0
301	48	19	1	16	404.9483	29	1	800	21632.1502	 0.0007	34.8119	35.6287	36.3453	36.7518	0
301	48	20	1	16	367.0297	56	1	800	21632.1502	 0.0007	36.7619	37.5787	38.2953	38.6633	0
301	48	21	1	16	314.6789	29	1	800	21632.1502	 0.0007	38.6786	39.4953	40.2119	40.5276	0
301	48	22	1	16	415.7657	29	1	800	21632.1502	 0.0007	40.5452	41.3620	42.0786	42.4955	0
301	48	23	1	16	321.0020	56	1	800	21632.1502	 0.0007	42.5119	43.3286	44.0453	44.3674	0
301	48	24	1	16	318.3461	56	1	800	21632.1502	 0.0007	44.3786	45.1953	45.9120	46.2313	0
301	48	25	1	16	348.2342	56	1	800	21632.1502	 0.0007	46.2452	47.0620	47.7786	48.1278	0
301	48	26	1	16	311.7871	56	1	800	21632.1502	 0.0007	48.1453	48.9620	49.6787	49.9915	0
301	48	27	1	16	341.0775	56	1	800	21632.1502	 0.0007	50.0119	50.8287	51.5453	51.8875	0
301	48	28	1	16	417.6597	29	1	800	21632.1502	 0.0007	51.8952	52.7120	53.4286	53.8473	0
301	48	29	1	16	331.7510	29	1	800	21632.1502	 0.0007	53.8619	54.6786	55.3953	55.7281	0
301	48	30	1	16	583.9997	56	0	800	21632.1502	 0.0007	55.7453	56.5619	57.2786	57.8636	0
301	49	1	1	17	370.0979	56	1	800	21703.3669	 0.0007	 0.0151	 0.8318	 1.5485	 1.9197	0
301	49	2	1	17	421.4695	56	1	800	21703.3669	 0.0007	 1.9318	 2.7484	 3.4652	 3.8877	0
301	49	3	1	17	574.2421	29	1	800	21703.3669	 0.0007	 3.8984	 4.7152	 5.4317	 6.0073	0
301	49	4	1	17	329.7281	29	1	800	21703.3669	 0.0007	 6.0151	 6.8319	 7.5485	 7.8792	0
301	49	5	1	17	479.2766	29	1	800	21703.3669	 0.0007	 7.8984	 8.7152	 9.4318	 9.9125	0
301	49	6	1	17	325.7903	56	1	800	21703.3669	 0.0007	 9.9318	10.7485	11.4652	11.7920	0
301	49	7	1	17	490.5560	29	1	800	21703.3669	 0.0007	11.7984	12.6151	13.3318	13.8235	0
301	49	8	1	17	321.1778	56	1	800	21703.3669	 0.0007	13.8318	14.6485	15.3652	15.6874	0
301	49	9	1	17	350.4573	56	1	800	21703.3669	 0.0007	15.6984	16.5153	17.2319	17.5834	0
301	49	10	1	17	370.3539	56	1	800	21703.3669	 0.0007	17.5985	18.4151	19.1318	19.5032	0
301	49	11	1	17	341.5848	56	1	800	21703.3669	 0.0007	19.5151	20.3318	21.0485	21.3911	0
301	49	12	1	17	362.5434	29	1	800	21703.3669	 0.0007	21.3984	22.2151	22.9319	23.2955	0
301	50	1	1	17	397.7075	56	0	800	21740.6836	 0.0007	 0.0192	 0.8359	 1.5526	 1.9514	0
301	50	2	1	17	699.8333	1	0	800	21740.6836	 0.0007	 0.0080	 0.8247	 1.5415	 2.2421	0
301	50	3	1	17	276.3600	56	1	800	21740.6836	 0.0007	 0.0217	 0.8385	 1.5552	 1.8326	0
301	50	4	1	17	459.0265	29	1	800	21740.6836	 0.0007	 1.8383	 2.6552	 3.3718	 3.8320	0
301	50	5	1	17	355.2598	56	1	800	21740.6836	 0.0007	 3.8383	 4.6550	 5.3717	 5.7284	0
301	50	6	1	17	327.7411	56	1	800	21740.6836	 0.0007	 5.7384	 6.5551	 7.2717	 7.6003	0
301	50	7	1	17	355.8412	56	1	800	21740.6836	 0.0007	 7.6217	 8.4384	 9.1551	 9.5120	0
301	50	8	1	17	343.7706	56	1	800	21740.6836	 0.0007	 9.5217	10.3384	11.0551	11.4000	0
301	50	9	1	17	388.0694	29	1	800	21740.6836	 0.0007	11.4217	12.2385	12.9551	13.3443	0
301	50	10	1	17	382.4772	29	1	800	21740.6836	 0.0007	13.3550	14.1718	14.8884	15.2719	0
301	50	11	1	17	617.4753	29	1	800	21740.6836	 0.0007	15.2883	16.1051	16.8218	17.4403	0
301	50	12	1	17	434.9019	29	1	800	21740.6836	 0.0007	17.4551	18.2717	18.9883	19.4244	0
301	50	13	1	17	323.0253	56	1	800	21740.6836	 0.0007	19.4384	20.2551	20.9718	21.2958	0
301	50	14	1	17	304.7028	56	1	800	21740.6836	 0.0007	21.3050	22.1218	22.8384	23.1441	0
301	50	15	1	17	351.1124	29	1	800	21740.6836	 0.0007	23.1550	23.9718	24.6884	25.0405	0
301	50	16	1	17	354.5090	56	1	800	21740.6836	 0.0007	25.0550	25.8718	26.5884	26.9439	0
301	50	17	1	17	342.5739	29	1	800	21740.6836	 0.0007	26.9550	27.7718	28.4884	28.8320	0
301	50	18	1	17	339.3137	56	1	800	21740.6836	 0.0007	28.8384	29.6551	30.3718	30.7123	0
301	50	19	1	17	320.0807	56	1	800	21740.6836	 0.0007	30.7217	31.5385	32.2551	32.5762	0
301	50	20	1	17	293.1055	56	1	800	21740.6836	 0.0007	32.5885	33.4051	34.1217	34.4160	0
301	50	21	1	17	404.3752	29	1	800	21740.6836	 0.0007	34.4217	35.2384	35.9551	36.3604	0
301	50	22	1	17	326.6040	29	1	800	21740.6836	 0.0007	36.3717	37.1884	37.9050	38.2326	0
301	50	23	1	17	338.2830	56	1	800	21740.6836	 0.0007	38.2550	39.0717	39.7884	40.1278	0
301	50	24	1	17	287.8366	56	1	800	21740.6836	 0.0007	40.1383	40.9550	41.6717	41.9605	0
301	50	25	1	17	341.9194	56	1	800	21740.6836	 0.0007	41.9717	42.7884	43.5050	43.8481	0
301	50	26	1	17	377.7148	29	1	800	21740.6836	 0.0007	43.8727	44.6885	45.4051	45.7839	0
301	50	27	1	17	325.0786	56	1	800	21740.6836	 0.0007	45.8050	46.6218	47.3384	47.6644	0
301	50	28	1	17	361.9280	29	1	800	21740.6836	 0.0007	47.6717	48.4884	49.2052	49.5681	0
301	50	29	1	17	332.9729	56	1	800	21740.6836	 0.0007	49.5884	50.4051	51.1218	51.4558	0
301	50	30	1	17	282.3873	56	1	800	21740.6836	 0.0007	51.4717	52.2884	53.0051	53.2884	0
301	51	1	1	17	311.1328	56	1	800	21824.9002	 0.0007	 0.0184	 0.8350	 1.5518	 1.8640	0
301	51	2	1	17	413.1308	29	1	800	21824.9002	 0.0007	 1.8850	 2.7019	 3.4184	 3.8326	0
301	51	3	1	17	350.5148	56	1	800	21824.9002	 0.0007	 3.8517	 4.6684	 5.3851	 5.7366	0
301	51	4	1	17	353.7326	56	1	800	21824.9002	 0.0007	 5.7517	 6.5684	 7.2851	 7.6398	0
301	51	5	1	17	294.5324	56	1	800	21824.9002	 0.0007	 7.6517	 8.4684	 9.1850	 9.4806	0
301	51	6	1	17	316.0132	56	1	800	21824.9002	 0.0007	 9.5016	10.3184	11.0350	11.3522	0
301	51	7	1	17	289.6578	56	1	800	21824.9002	 0.0007	11.3683	12.1850	12.9018	13.1925	0
301	51	8	1	17	319.6716	29	1	800	21824.9002	 0.0007	13.2017	14.0184	14.7351	15.0558	0
301	51	9	1	17	341.0799	56	1	800	21824.9002	 0.0007	15.0683	15.8850	16.6018	16.9439	0
301	51	10	1	17	370.3187	29	1	800	21824.9002	 0.0007	16.9516	17.7684	18.4851	18.8564	0
301	51	11	1	17	381.5506	56	1	800	21824.9002	 0.0007	18.8683	19.6850	20.4017	20.7843	0
301	51	12	1	17	351.7221	29	1	800	21824.9002	 0.0007	20.8017	21.6184	22.3351	22.6878	0
