SUBID	BLOCK	TRIAL	REP	RUNID	RT	RESP	ACC	RSIJIT	EV_START	EV_BLOCK	EV_TRIAL	EV_RETRIEVAL	EV_PROBE	EV_RESP	EV_BLEND
302	1	1	1	1	699.4931	1	0	800	500.8379	 0.0039	 0.0158	 0.8655	 1.5822	 2.2836	0
302	1	2	1	1	699.7584	1	0	800	500.8379	 0.0039	 0.0312	 0.8479	 1.5646	 2.2658	0
302	1	3	1	1	514.1597	56	1	800	500.8379	 0.0039	 0.0311	 0.8477	 1.5644	 2.0816	0
302	1	4	1	1	699.5509	1	0	800	500.8379	 0.0039	 2.0977	 2.9145	 3.6310	 4.3317	0
302	1	5	1	1	344.8589	29	0	800	500.8379	 0.0039	 0.0232	 0.8397	 1.5565	 1.9125	0
302	1	6	1	1	509.9911	56	1	800	500.8379	 0.0039	 0.0198	 0.8365	 1.5531	 2.0643	0
302	1	7	1	1	699.6131	1	0	800	500.8379	 0.0039	 2.0865	 2.9032	 3.6198	 4.3213	0
302	1	8	1	1	699.6078	1	0	800	500.8379	 0.0039	 0.0134	 0.8301	 1.5467	 2.2473	0
302	1	9	1	1	597.7607	56	0	800	500.8379	 0.0039	 0.0193	 0.8359	 1.5526	 2.1516	0
302	1	10	1	1	699.4532	1	0	800	500.8379	 0.0039	 0.0136	 0.8303	 1.5469	 2.2471	0
302	1	11	1	1	699.8608	1	0	800	500.8379	 0.0039	 0.0109	 0.8269	 1.5436	 2.2442	0
302	1	12	1	1	459.3387	56	1	800	500.8379	 0.0039	 0.0228	 0.8395	 1.5561	 2.0171	0
302	1	1	2	1	598.8762	56	1	800	500.8379	 0.0039	 0.0116	 0.8281	 1.5447	 2.1450	 2.0204
302	1	2	2	1	664.3420	56	0	800	500.8379	 0.0039	 2.1614	 2.9781	 3.6948	 4.3601	 2.0204
302	1	3	2	1	538.1788	29	1	800	500.8379	 0.0039	 0.0241	 0.8407	 1.5574	 2.0968	 2.0204
302	1	4	2	1	566.1075	56	0	800	500.8379	 0.0039	 2.1074	 2.9240	 3.6407	 4.2079	 2.0204
302	1	5	2	1	699.9312	1	0	800	500.8379	 0.0039	 0.0125	 0.8292	 1.5458	 2.2465	 2.0204
302	1	6	2	1	699.9849	1	0	800	500.8379	 0.0039	 0.0109	 0.8276	 1.5442	 2.2449	 2.0204
302	1	7	2	1	699.8624	1	0	800	500.8379	 0.0039	 0.0231	 0.8397	 1.5564	 2.2570	 2.0204
302	1	8	2	1	699.4529	1	0	800	500.8379	 0.0039	 0.0178	 0.8343	 1.5509	 2.2511	 2.0204
302	1	9	2	1	579.4770	29	1	800	500.8379	 0.0039	 0.0141	 0.8307	 1.5473	 2.1279	 2.0204
302	1	10	2	1	694.7955	29	1	800	500.8379	 0.0039	 2.1475	 2.9640	 3.6807	 4.3764	 2.0204
302	1	11	2	1	532.2147	56	1	800	500.8379	 0.0039	 4.3975	 5.2141	 5.9307	 6.4640	 2.0204
302	1	12	2	1	464.8223	29	1	800	500.8379	 0.0039	 6.4808	 7.2974	 8.0141	 8.4800	 2.0204
302	1	1	3	1	538.1760	56	1	800	500.8379	 0.0039	 0.0153	 0.8319	 1.5485	 2.0878	 8.4833
302	1	2	3	1	534.9102	29	1	800	500.8379	 0.0039	 2.0985	 2.9152	 3.6319	 4.1679	 8.4833
302	1	3	3	1	380.0708	56	1	800	500.8379	 0.0039	 4.1819	 4.9984	 5.7152	 6.0962	 8.4833
302	1	4	3	1	462.7921	29	1	800	500.8379	 0.0039	 6.1152	 6.9319	 7.6484	 8.1122	 8.4833
302	1	5	3	1	342.1847	56	1	800	500.8379	 0.0039	 8.1318	 8.9485	 9.6651	10.0082	 8.4833
302	1	6	3	1	306.2059	29	0	800	500.8379	 0.0039	10.0318	10.8485	11.5652	11.8725	 8.4833
302	1	7	3	1	587.2124	56	1	800	500.8379	 0.0039	 0.0149	 0.8315	 1.5481	 2.1364	 8.4833
302	1	8	3	1	494.1366	29	0	800	500.8379	 0.0039	 2.1481	 2.9648	 3.6814	 4.1765	 8.4833
302	1	9	3	1	494.7450	56	1	800	500.8379	 0.0039	 0.0184	 0.8351	 1.5519	 2.0478	 8.4833
302	1	10	3	1	445.0463	29	0	800	500.8379	 0.0039	 2.0685	 2.8851	 3.6018	 4.0479	 8.4833
302	1	11	3	1	528.0336	56	1	800	500.8379	 0.0039	 0.0252	 0.8418	 1.5585	 2.0876	 8.4833
302	1	12	3	1	341.0415	56	1	800	500.8379	 0.0039	 2.1086	 2.9252	 3.6417	 3.9838	 8.4833
302	1	1	4	1	503.2622	56	1	800	500.8379	 0.0039	 0.0103	 0.8270	 1.5437	 2.0480	 3.9868
302	1	2	4	1	613.3108	29	1	800	500.8379	 0.0039	 2.0604	 2.8770	 3.5936	 4.2079	 3.9868
302	1	3	4	1	446.1579	56	1	800	500.8379	 0.0039	 4.2270	 5.0437	 5.7603	 6.2075	 3.9868
302	1	4	4	1	678.4021	56	0	800	500.8379	 0.0039	 6.2270	 7.0437	 7.7604	 8.4398	 3.9868
302	1	5	4	1	547.5445	56	1	800	500.8379	 0.0039	 0.0218	 0.8384	 1.5552	 2.1036	 3.9868
302	1	6	4	1	454.9866	29	0	800	500.8379	 0.0039	 2.1218	 2.9384	 3.6551	 4.1111	 3.9868
302	1	7	4	1	472.7967	56	1	800	500.8379	 0.0039	 0.0110	 0.8252	 1.5418	 2.0157	 3.9868
302	1	8	4	1	400.7756	29	0	800	500.8379	 0.0039	 2.0251	 2.8418	 3.5585	 3.9602	 3.9868
302	1	9	4	1	518.0095	56	1	800	500.8379	 0.0039	 0.0115	 0.8282	 1.5449	 2.0643	 3.9868
302	1	10	4	1	571.4666	56	1	800	500.8379	 0.0039	 2.0782	 2.8948	 3.6115	 4.1839	 3.9868
302	1	11	4	1	463.3669	56	1	800	500.8379	 0.0039	 4.1948	 5.0116	 5.7281	 6.1925	 3.9868
302	1	12	4	1	294.2630	56	1	800	500.8379	 0.0039	 6.2115	 7.0282	 7.7448	 8.0401	 3.9868
302	1	1	5	1	427.2101	56	1	800	500.8379	 0.0039	 0.0146	 0.8313	 1.5479	 1.9761	 8.0431
302	1	2	5	1	596.1625	56	1	800	500.8379	 0.0039	 1.9980	 2.8146	 3.5313	 4.1284	 8.0431
302	1	3	5	1	389.3544	56	1	800	500.8379	 0.0039	 4.1480	 4.9646	 5.6813	 6.0717	 8.0431
302	1	4	5	1	440.0970	56	1	800	500.8379	 0.0039	 6.0812	 6.8979	 7.6146	 8.0557	 8.0431
302	1	5	5	1	401.1974	56	1	800	500.8379	 0.0039	 8.0645	 8.8813	 9.5979	10.0002	 8.0431
302	1	6	5	1	347.4342	56	1	800	500.8379	 0.0039	10.0146	10.8312	11.5479	11.8963	 8.0431
302	1	7	5	1	519.5566	29	1	800	500.8379	 0.0039	11.9147	12.7312	13.4479	13.9685	 8.0431
302	1	8	5	1	436.8236	29	0	800	500.8379	 0.0039	13.9813	14.7980	15.5146	15.9524	 8.0431
302	1	9	5	1	696.2206	56	0	800	500.8379	 0.0039	 0.0094	 0.8261	 1.5428	 2.2400	 8.0431
302	1	10	5	1	551.3704	56	1	800	500.8379	 0.0039	 0.0167	 0.8333	 1.5500	 2.1024	 8.0431
302	1	11	5	1	643.8139	29	1	800	500.8379	 0.0039	 2.1167	 2.9333	 3.6501	 4.2950	 8.0431
302	1	12	5	1	476.2853	56	1	800	500.8379	 0.0039	 4.3168	 5.1334	 5.8500	 6.3271	 8.0431
302	1	1	6	1	362.6646	56	1	800	500.8379	 0.0039	 0.0147	 0.8313	 1.5480	 1.9117	 6.3314
302	1	2	6	1	526.1647	56	1	800	500.8379	 0.0039	 1.9314	 2.7480	 3.4646	 3.9919	 6.3314
302	1	3	6	1	570.9255	29	1	800	500.8379	 0.0039	 4.0146	 4.8313	 5.5480	 6.1200	 6.3314
302	1	4	6	1	494.2584	56	1	800	500.8379	 0.0039	 6.1314	 6.9480	 7.6647	 8.1601	 6.3314
302	1	5	6	1	652.4718	29	1	800	500.8379	 0.0039	 8.1813	 8.9980	 9.7147	10.3682	 6.3314
302	1	6	6	1	340.4119	56	1	800	500.8379	 0.0039	10.3814	11.1980	11.9147	12.2562	 6.3314
302	1	7	6	1	505.4856	29	1	800	500.8379	 0.0039	12.2646	13.0813	13.7980	14.3045	 6.3314
302	1	8	6	1	598.8208	56	1	800	500.8379	 0.0039	14.3146	15.1313	15.8479	16.4477	 6.3314
302	1	9	6	1	353.0203	56	1	800	500.8379	 0.0039	16.4647	17.2814	17.9979	18.3520	 6.3314
302	1	10	6	1	621.8830	29	1	800	500.8379	 0.0039	18.3647	19.1814	19.8980	20.5215	 6.3314
302	1	11	6	1	638.2464	29	1	800	500.8379	 0.0039	20.5324	21.3480	22.0646	22.7039	 6.3314
302	1	12	6	1	423.6912	29	1	800	500.8379	 0.0039	22.7146	23.5313	24.2479	24.6727	 6.3314
302	2	1	1	1	466.2485	56	1	800	823.6772	 0.0025	 0.0067	 0.8233	 1.5400	 2.0072	0
302	2	2	1	1	386.1609	56	1	800	823.6772	 0.0025	 2.0235	 2.8401	 3.5568	 3.9445	0
302	2	3	1	1	340.1710	56	1	800	823.6772	 0.0025	 3.9567	 4.7734	 5.4900	 5.8314	0
302	2	4	1	1	481.2532	29	1	800	823.6772	 0.0025	 5.8400	 6.6566	 7.3733	 7.8557	0
302	2	5	1	1	527.5307	56	1	800	823.6772	 0.0025	 7.8733	 8.6901	 9.4067	 9.9353	0
302	2	6	1	1	516.8977	29	1	800	823.6772	 0.0025	 9.9400	10.7567	11.4734	11.9913	0
302	2	7	1	1	434.5371	56	1	800	823.6772	 0.0025	12.0066	12.8234	13.5400	13.9756	0
302	2	8	1	1	410.7533	56	0	800	823.6772	 0.0025	13.9901	14.8067	15.5234	15.9351	0
302	2	9	1	1	397.5703	29	1	800	823.6772	 0.0025	 0.0207	 0.8374	 1.5540	 1.9526	0
302	2	10	1	1	599.6579	29	1	800	823.6772	 0.0025	 1.9707	 2.7873	 3.5040	 4.1046	0
302	2	11	1	1	465.4722	29	1	800	823.6772	 0.0025	 4.1208	 4.9373	 5.6540	 6.1204	0
302	2	12	1	1	368.6165	56	1	800	823.6772	 0.0025	 6.1373	 6.9541	 7.6706	 8.0403	0
302	2	13	1	1	700.0270	1	0	800	823.6772	 0.0025	 8.0541	 8.8707	 9.5873	10.2882	0
302	2	14	1	1	598.1137	29	1	800	823.6772	 0.0025	 0.0109	 0.8277	 1.5443	 2.1435	0
302	2	15	1	1	680.7561	29	1	800	823.6772	 0.0025	 2.1611	 2.9777	 3.6944	 4.3760	0
302	2	16	1	1	615.5031	29	1	800	823.6772	 0.0025	 4.3944	 5.2109	 5.9277	 6.5443	0
302	2	17	1	1	699.9930	1	0	800	823.6772	 0.0025	 6.5610	 7.3776	 8.0944	 8.7951	0
302	2	18	1	1	355.9789	56	1	800	823.6772	 0.0025	 0.0142	 0.8308	 1.5474	 1.9048	0
302	2	19	1	1	447.0948	56	1	800	823.6772	 0.0025	 1.9141	 2.7307	 3.4475	 3.8956	0
302	2	20	1	1	700.0079	1	0	800	823.6772	 0.0025	 3.9141	 4.7308	 5.4474	 6.1481	0
302	2	21	1	1	371.5464	56	1	800	823.6772	 0.0025	 0.0214	 0.8381	 1.5549	 1.9276	0
302	2	22	1	1	615.1287	29	1	800	823.6772	 0.0025	 1.9381	 2.7549	 3.4715	 4.0878	0
302	2	23	1	1	456.1639	56	1	800	823.6772	 0.0025	 4.1048	 4.9215	 5.6382	 6.0954	0
302	2	24	1	1	699.8040	1	0	800	823.6772	 0.0025	 6.1048	 6.9215	 7.6382	 8.3387	0
302	2	25	1	1	454.1369	56	1	800	823.6772	 0.0025	 0.0110	 0.8277	 1.5444	 1.9997	0
302	2	26	1	1	566.9412	56	0	800	823.6772	 0.0025	 2.0110	 2.8278	 3.5443	 4.1122	0
302	2	27	1	1	464.2279	29	1	800	823.6772	 0.0025	 0.0178	 0.8340	 1.5508	 2.0160	0
302	2	28	1	1	567.3536	29	1	800	823.6772	 0.0025	 2.0340	 2.8507	 3.5675	 4.1359	0
302	2	29	1	1	434.8552	56	1	800	823.6772	 0.0025	 4.1507	 4.9674	 5.6841	 6.1200	0
302	2	30	1	1	699.6703	1	0	800	823.6772	 0.0025	 6.1341	 6.9507	 7.6674	 8.3678	0
302	3	1	1	1	489.5170	56	1	800	929.3580	 0.0013	 0.0160	 0.8327	 1.5493	 2.0398	0
302	3	2	1	1	376.1143	56	0	800	929.3580	 0.0013	 2.0493	 2.8660	 3.5827	 3.9598	0
302	3	3	1	1	553.7056	56	1	800	929.3580	 0.0013	 0.0082	 0.8250	 1.5417	 2.0965	0
302	3	4	1	1	381.6382	56	1	800	929.3580	 0.0013	 2.1082	 2.9250	 3.6415	 4.0242	0
302	3	5	1	1	408.2759	56	1	800	929.3580	 0.0013	 4.0416	 4.8583	 5.5750	 5.9843	0
302	3	6	1	1	514.1196	29	1	800	929.3580	 0.0013	 5.9915	 6.8083	 7.5250	 8.0401	0
302	3	7	1	1	671.5658	29	1	800	929.3580	 0.0013	 8.0582	 8.8749	 9.5916	10.2642	0
302	3	8	1	1	334.8947	29	1	800	929.3580	 0.0013	10.2749	11.0916	11.8082	12.1441	0
302	3	9	1	1	388.1256	29	1	800	929.3580	 0.0013	12.1582	12.9749	13.6916	14.0807	0
302	3	10	1	1	342.2704	56	1	800	929.3580	 0.0013	14.0916	14.9083	15.6249	15.9683	0
302	3	11	1	1	483.0023	29	1	800	929.3580	 0.0013	15.9917	16.8082	17.5249	18.0091	0
302	3	12	1	1	699.9952	1	0	800	929.3580	 0.0013	18.0249	18.8416	19.5582	20.2589	0
302	3	1	2	1	538.7831	29	1	800	929.3580	 0.0013	 0.0076	 0.8243	 1.5409	 2.0807	 0.0029
302	3	2	2	1	463.2518	29	0	800	929.3580	 0.0013	 2.0909	 2.9076	 3.6242	 4.0884	 0.0029
302	3	3	2	1	360.6488	56	1	800	929.3580	 0.0013	 0.0083	 0.8250	 1.5418	 1.9034	 0.0029
302	3	4	2	1	412.1808	56	1	800	929.3580	 0.0013	 1.9251	 2.7417	 3.4584	 3.8716	 0.0029
302	3	5	2	1	485.7227	29	1	800	929.3580	 0.0013	 3.8917	 4.7084	 5.4250	 5.9118	 0.0029
302	3	6	2	1	389.0129	29	1	800	929.3580	 0.0013	 5.9250	 6.7418	 7.4584	 7.8484	 0.0029
302	3	7	2	1	391.0103	29	1	800	929.3580	 0.0013	 7.8584	 8.6751	 9.3917	 9.7837	 0.0029
302	3	8	2	1	569.9330	29	1	800	929.3580	 0.0013	 9.7917	10.6084	11.3251	11.8960	 0.0029
302	3	9	2	1	357.5208	56	1	800	929.3580	 0.0013	11.9084	12.7251	13.4417	13.8002	 0.0029
302	3	10	2	1	384.9817	29	1	800	929.3580	 0.0013	13.8083	14.6250	15.3417	15.7279	 0.0029
302	3	11	2	1	699.7132	1	0	800	929.3580	 0.0013	15.7417	16.5584	17.2751	17.9755	 0.0029
302	3	12	2	1	367.8693	56	1	800	929.3580	 0.0013	 0.0173	 0.8341	 1.5507	 1.9196	 0.0029
302	3	1	3	1	407.5721	56	1	800	929.3580	 0.0013	 0.0099	 0.8262	 1.5429	 1.9515	 1.9246
302	3	2	3	1	354.1268	56	1	800	929.3580	 0.0013	 1.9594	 2.7762	 3.4929	 3.8480	 1.9246
302	3	3	3	1	349.5096	29	1	800	929.3580	 0.0013	 3.8595	 4.6762	 5.3929	 5.7434	 1.9246
302	3	4	3	1	498.5352	29	1	800	929.3580	 0.0013	 5.7595	 6.5762	 7.2928	 7.7924	 1.9246
302	3	5	3	1	423.5405	29	1	800	929.3580	 0.0013	 7.8095	 8.6262	 9.3429	 9.7674	 1.9246
302	3	6	3	1	465.2258	29	1	800	929.3580	 0.0013	 9.7762	10.5929	11.3096	11.7759	 1.9246
302	3	7	3	1	375.5744	29	0	800	929.3580	 0.0013	11.8096	12.6261	13.3428	13.7194	 1.9246
302	3	8	3	1	435.5460	29	1	800	929.3580	 0.0013	 0.0222	 0.8389	 1.5555	 1.9921	 1.9246
302	3	9	3	1	380.7148	56	1	800	929.3580	 0.0013	 2.0055	 2.8222	 3.5389	 3.9206	 1.9246
302	3	10	3	1	366.9740	56	1	800	929.3580	 0.0013	 3.9388	 4.7555	 5.4722	 5.8402	 1.9246
302	3	11	3	1	274.2313	29	0	800	929.3580	 0.0013	 5.8556	 6.6722	 7.3889	 7.6643	 1.9246
302	3	12	3	1	699.9084	1	0	800	929.3580	 0.0013	 0.0218	 0.8384	 1.5552	 2.2558	 1.9246
302	3	1	4	1	517.8619	56	1	800	929.3580	 0.0013	 0.0035	 0.8202	 1.5369	 2.0566	 0.0027
302	3	2	4	1	539.0436	29	1	800	929.3580	 0.0013	 2.0702	 2.8869	 3.6035	 4.1436	 0.0027
302	3	3	4	1	423.6428	29	1	800	929.3580	 0.0013	 4.1535	 4.9702	 5.6869	 6.1116	 0.0027
302	3	4	4	1	393.7417	29	1	800	929.3580	 0.0013	 6.1201	 6.9368	 7.6536	 8.0483	 0.0027
302	3	5	4	1	547.0541	29	1	800	929.3580	 0.0013	 8.0702	 8.8869	 9.6035	10.1516	 0.0027
302	3	6	4	1	455.0468	56	1	800	929.3580	 0.0013	10.1720	10.9869	11.7034	12.1596	 0.0027
302	3	7	4	1	447.1395	29	1	800	929.3580	 0.0013	12.1702	12.9868	13.7036	14.1517	 0.0027
302	3	8	4	1	358.8193	29	0	800	929.3580	 0.0013	14.1702	14.9869	15.7035	16.0635	 0.0027
302	3	9	4	1	462.2849	56	1	800	929.3580	 0.0013	 0.0200	 0.8368	 1.5533	 2.0166	 0.0027
302	3	10	4	1	390.0555	56	1	800	929.3580	 0.0013	 2.0367	 2.8534	 3.5700	 3.9614	 0.0027
302	3	11	4	1	376.2385	56	0	800	929.3580	 0.0013	 3.9701	 4.7868	 5.5034	 5.8805	 0.0027
302	3	12	4	1	395.3805	56	1	800	929.3580	 0.0013	 0.0067	 0.8234	 1.5401	 1.9364	 0.0027
302	3	1	5	1	325.5324	56	1	800	929.3580	 0.0013	 0.0120	 0.8287	 1.5454	 1.8720	 1.9392
302	3	2	5	1	434.6668	29	1	800	929.3580	 0.0013	 1.8787	 2.6954	 3.4122	 3.8479	 1.9392
302	3	3	5	1	451.5003	56	1	800	929.3580	 0.0013	 3.8620	 4.6787	 5.3955	 5.8480	 1.9392
302	3	4	5	1	531.3047	29	1	800	929.3580	 0.0013	 5.8621	 6.6787	 7.3956	 7.9279	 1.9392
302	3	5	5	1	536.9831	29	1	800	929.3580	 0.0013	 7.9454	 8.7620	 9.4788	10.0167	 1.9392
302	3	6	5	1	469.0381	29	1	800	929.3580	 0.0013	10.0287	10.8454	11.5621	12.0322	 1.9392
302	3	7	5	1	412.2790	29	0	800	929.3580	 0.0013	12.0454	12.8620	13.5788	13.9921	 1.9392
302	3	8	5	1	311.6421	56	1	800	929.3580	 0.0013	 0.0184	 0.8352	 1.5517	 1.8643	 1.9392
302	3	9	5	1	404.1401	29	1	800	929.3580	 0.0013	 1.8851	 2.7018	 3.4184	 3.8235	 1.9392
302	3	10	5	1	519.0403	56	0	800	929.3580	 0.0013	 3.8351	 4.6518	 5.3684	 5.8885	 1.9392
302	3	11	5	1	622.9408	29	0	800	929.3580	 0.0013	 0.0108	 0.8275	 1.5441	 2.1680	 1.9392
302	3	12	5	1	368.7580	56	1	800	929.3580	 0.0013	 0.0170	 0.8337	 1.5504	 1.9201	 1.9392
302	3	1	6	1	378.9781	56	1	800	929.3580	 0.0013	 0.0067	 0.8234	 1.5401	 1.9199	 1.9234
302	3	2	6	1	420.9131	56	1	800	929.3580	 0.0013	 1.9401	 2.7568	 3.4735	 3.8954	 1.9234
302	3	3	6	1	350.8073	56	1	800	929.3580	 0.0013	 3.9068	 4.7234	 5.4401	 5.7920	 1.9234
302	3	4	6	1	354.7792	29	0	800	929.3580	 0.0013	 5.8067	 6.6235	 7.3401	 7.6958	 1.9234
302	3	5	6	1	455.0287	29	0	800	929.3580	 0.0013	 0.0109	 0.8276	 1.5442	 2.0003	 1.9234
302	3	6	6	1	537.4617	29	1	800	929.3580	 0.0013	 0.0075	 0.8242	 1.5409	 2.0794	 1.9234
302	3	7	6	1	334.3144	56	1	800	929.3580	 0.0013	 2.0908	 2.9076	 3.6242	 3.9597	 1.9234
302	3	8	6	1	347.0743	56	1	800	929.3580	 0.0013	 3.9742	 4.7908	 5.5076	 5.8557	 1.9234
302	3	9	6	1	358.9743	29	1	800	929.3580	 0.0013	 5.8746	 6.6908	 7.4076	 7.7676	 1.9234
302	3	10	6	1	441.9568	56	1	800	929.3580	 0.0013	 7.7909	 8.6075	 9.3243	 9.7672	 1.9234
302	3	11	6	1	394.7601	56	1	800	929.3580	 0.0013	 9.7742	10.5909	11.3075	11.7032	 1.9234
302	3	12	6	1	364.9639	56	1	800	929.3580	 0.0013	11.7242	12.5409	13.2575	13.6235	 1.9234
302	3	1	7	1	391.6730	56	1	800	929.3580	 0.0013	 0.0097	 0.8264	 1.5430	 1.9358	13.6261
302	3	2	7	1	330.2391	56	1	800	929.3580	 0.0013	 1.9430	 2.7597	 3.4764	 3.8077	13.6261
302	3	3	7	1	303.7029	56	1	800	929.3580	 0.0013	 3.8263	 4.6431	 5.3596	 5.6643	13.6261
302	3	4	7	1	381.2171	29	1	800	929.3580	 0.0013	 5.6763	 6.4931	 7.2097	 7.5920	13.6261
302	3	5	7	1	440.0554	56	0	800	929.3580	 0.0013	 7.6097	 8.4264	 9.1431	 9.5841	13.6261
302	3	6	7	1	401.0215	29	1	800	929.3580	 0.0013	 0.0086	 0.8253	 1.5419	 1.9441	13.6261
302	3	7	7	1	699.5042	1	0	800	929.3580	 0.0013	 1.9586	 2.7754	 3.4920	 4.1922	13.6261
302	3	8	7	1	317.4390	56	1	800	929.3580	 0.0013	 0.0199	 0.8366	 1.5532	 1.8716	13.6261
302	3	9	7	1	490.8480	29	1	800	929.3580	 0.0013	 1.8865	 2.7033	 3.4199	 3.9118	13.6261
302	3	10	7	1	378.1922	56	1	800	929.3580	 0.0013	 3.9198	 4.7365	 5.4532	 5.8324	13.6261
302	3	11	7	1	356.0328	56	1	800	929.3580	 0.0013	 5.8532	 6.6699	 7.3866	 7.7437	13.6261
302	3	12	7	1	336.2428	56	1	800	929.3580	 0.0013	 7.7532	 8.5698	 9.2865	 9.6238	13.6261
302	3	1	8	1	281.0745	56	1	800	929.3580	 0.0013	 0.0084	 0.8251	 1.5418	 1.8240	 9.6269
302	3	2	8	1	327.3627	56	1	800	929.3580	 0.0013	 1.8417	 2.6584	 3.3751	 3.7035	 9.6269
302	3	3	8	1	276.7451	56	1	800	929.3580	 0.0013	 3.7250	 4.5417	 5.2585	 5.5361	 9.6269
302	3	4	8	1	522.7108	29	1	800	929.3580	 0.0013	 5.5583	 6.3751	 7.0918	 7.6155	 9.6269
302	3	5	8	1	472.9338	56	1	800	929.3580	 0.0013	 7.6250	 8.4416	 9.1584	 9.6323	 9.6269
302	3	6	8	1	699.7853	1	0	800	929.3580	 0.0013	 9.6417	10.4585	11.1751	11.8756	 9.6269
302	3	7	8	1	699.5191	1	0	800	929.3580	 0.0013	 0.0217	 0.8384	 1.5551	 2.2553	 9.6269
302	3	8	8	1	693.0807	29	1	800	929.3580	 0.0013	 0.0210	 0.8377	 1.5543	 2.2486	 9.6269
302	3	9	8	1	362.1343	56	1	800	929.3580	 0.0013	 2.2709	 3.0876	 3.8043	 4.1675	 9.6269
302	3	10	8	1	269.8463	29	0	800	929.3580	 0.0013	 4.1876	 5.0043	 5.7209	 5.9918	 9.6269
302	3	11	8	1	689.7911	29	1	800	929.3580	 0.0013	 0.0082	 0.8249	 1.5416	 2.2324	 9.6269
302	3	12	8	1	416.1647	29	1	800	929.3580	 0.0013	 2.2415	 3.0582	 3.7749	 4.1921	 9.6269
302	3	1	9	1	445.9620	56	1	800	929.3580	 0.0013	 0.0120	 0.8287	 1.5454	 1.9923	 4.1951
302	3	2	9	1	294.3448	56	1	800	929.3580	 0.0013	 2.0120	 2.8287	 3.5453	 3.8406	 4.1951
302	3	3	9	1	387.5877	56	1	800	929.3580	 0.0013	 3.8620	 4.6787	 5.3953	 5.7840	 4.1951
302	3	4	9	1	462.2862	29	1	800	929.3580	 0.0013	 5.7953	 6.6120	 7.3286	 7.7920	 4.1951
302	3	5	9	1	405.3810	56	1	800	929.3580	 0.0013	 7.8120	 8.6287	 9.3454	 9.7518	 4.1951
302	3	6	9	1	423.8312	29	1	800	929.3580	 0.0013	 9.7619	10.5787	11.2953	11.7202	 4.1951
302	3	7	9	1	545.3908	29	1	800	929.3580	 0.0013	11.7286	12.5453	13.2621	13.8084	 4.1951
302	3	8	9	1	453.1170	56	0	800	929.3580	 0.0013	13.8287	14.6454	15.3620	15.8162	 4.1951
302	3	9	9	1	363.4803	56	1	800	929.3580	 0.0013	 0.0221	 0.8388	 1.5555	 1.9200	 4.1951
302	3	10	9	1	367.4793	29	0	800	929.3580	 0.0013	 1.9387	 2.7555	 3.4721	 3.8405	 4.1951
302	3	11	9	1	418.2689	56	0	800	929.3580	 0.0013	 0.0152	 0.8320	 1.5485	 1.9678	 4.1951
302	3	12	9	1	438.1854	29	1	800	929.3580	 0.0013	 0.0116	 0.8283	 1.5449	 1.9840	 4.1951
302	3	1	10	1	446.2126	29	1	800	929.3580	 0.0013	 0.0030	 0.8197	 1.5364	 1.9837	 1.9869
302	3	2	10	1	534.8559	56	0	800	929.3580	 0.0013	 2.0031	 2.8198	 3.5364	 4.0722	 1.9869
302	3	3	10	1	386.8621	56	1	800	929.3580	 0.0013	 0.0072	 0.8239	 1.5407	 1.9285	 1.9869
302	3	4	10	1	405.6847	56	1	800	929.3580	 0.0013	 1.9405	 2.7573	 3.4738	 3.8805	 1.9869
302	3	5	10	1	471.0351	29	1	800	929.3580	 0.0013	 3.8905	 4.7073	 5.4240	 5.8960	 1.9869
302	3	6	10	1	502.0701	29	1	800	929.3580	 0.0013	 5.9072	 6.7240	 7.4406	 7.9437	 1.9869
302	3	7	10	1	404.4580	56	1	800	929.3580	 0.0013	 7.9572	 8.7740	 9.4905	 9.8960	 1.9869
302	3	8	10	1	382.1557	29	0	800	929.3580	 0.0013	 9.9072	10.7240	11.4406	11.8237	 1.9869
302	3	9	10	1	398.9596	56	1	800	929.3580	 0.0013	 0.0194	 0.8361	 1.5527	 1.9526	 1.9869
302	3	10	10	1	528.8810	29	0	800	929.3580	 0.0013	 1.9694	 2.7861	 3.5027	 4.0324	 1.9869
302	3	11	10	1	418.7871	56	1	800	929.3580	 0.0013	 0.0230	 0.8397	 1.5563	 1.9761	 1.9869
302	3	12	10	1	396.9633	29	1	800	929.3580	 0.0013	 1.9896	 2.8064	 3.5230	 3.9209	 1.9869
302	3	1	11	1	377.8209	29	1	800	929.3580	 0.0013	 0.0159	 0.8327	 1.5493	 1.9282	 3.9237
302	3	2	11	1	468.7457	56	1	800	929.3580	 0.0013	 1.9493	 2.7660	 3.4827	 3.9524	 3.9237
302	3	3	11	1	379.4923	56	1	800	929.3580	 0.0013	 3.9659	 4.7827	 5.4994	 5.8799	 3.9237
302	3	4	11	1	366.9146	56	0	800	929.3580	 0.0013	 5.8993	 6.7160	 7.4327	 7.8007	 3.9237
302	3	5	11	1	476.8818	29	1	800	929.3580	 0.0013	 0.0124	 0.8291	 1.5458	 2.0237	 3.9237
302	3	6	11	1	404.1739	56	1	800	929.3580	 0.0013	 2.0457	 2.8625	 3.5791	 3.9843	 3.9237
302	3	7	11	1	334.1687	56	1	800	929.3580	 0.0013	 3.9958	 4.8125	 5.5291	 5.8642	 3.9237
302	3	8	11	1	610.5882	29	0	800	929.3580	 0.0013	 5.8791	 6.6958	 7.4125	 8.0240	 3.9237
302	3	9	11	1	344.2297	56	1	800	929.3580	 0.0013	 0.0173	 0.8341	 1.5508	 1.8960	 3.9237
302	3	10	11	1	636.2583	29	0	800	929.3580	 0.0013	 1.9173	 2.7340	 3.4507	 4.0880	 3.9237
302	3	11	11	1	553.4675	29	1	800	929.3580	 0.0013	 0.0080	 0.8248	 1.5414	 2.0958	 3.9237
302	3	12	11	1	373.1736	56	1	800	929.3580	 0.0013	 2.1081	 2.9248	 3.6415	 4.0156	 3.9237
302	3	1	12	1	362.5459	29	1	800	929.3580	 0.0013	 0.0073	 0.8239	 1.5407	 1.9042	 4.0187
302	3	2	12	1	389.7885	29	0	800	929.3580	 0.0013	 1.9240	 2.7407	 3.4573	 3.8482	 4.0187
302	3	3	12	1	294.9290	56	1	800	929.3580	 0.0013	 0.0106	 0.8274	 1.5440	 1.8400	 4.0187
302	3	4	12	1	477.7982	29	1	800	929.3580	 0.0013	 1.8607	 2.6773	 3.3939	 3.8728	 4.0187
302	3	5	12	1	339.7045	29	1	800	929.3580	 0.0013	 3.8940	 4.7107	 5.4273	 5.7683	 4.0187
302	3	6	12	1	448.7087	56	1	800	929.3580	 0.0013	 5.7773	 6.5940	 7.3106	 7.7603	 4.0187
302	3	7	12	1	384.4412	56	1	800	929.3580	 0.0013	 7.7773	 8.5940	 9.3107	 9.6962	 4.0187
302	3	8	12	1	395.4866	29	0	800	929.3580	 0.0013	 9.7106	10.5274	11.2441	11.6405	 4.0187
302	3	9	12	1	364.2367	56	1	800	929.3580	 0.0013	 0.0128	 0.8295	 1.5461	 1.9114	 4.0187
302	3	10	12	1	455.4907	29	0	800	929.3580	 0.0013	 1.9295	 2.7462	 3.4628	 3.9194	 4.0187
302	3	11	12	1	699.7277	1	0	800	929.3580	 0.0013	 0.0178	 0.8344	 1.5512	 2.2517	 4.0187
302	3	12	12	1	379.4161	56	1	800	929.3580	 0.0013	 0.0212	 0.8380	 1.5546	 1.9351	 4.0187
302	3	1	13	1	331.5237	56	1	800	929.3580	 0.0013	 0.0146	 0.8312	 1.5480	 1.8805	 1.9377
302	3	2	13	1	296.1684	56	1	800	929.3580	 0.0013	 1.8979	 2.7146	 3.4312	 3.7284	 1.9377
302	3	3	13	1	350.2123	56	1	800	929.3580	 0.0013	 3.7479	 4.5646	 5.2812	 5.6325	 1.9377
302	3	4	13	1	441.8907	56	1	800	929.3580	 0.0013	 5.6480	 6.4647	 7.1813	 7.6243	 1.9377
302	3	5	13	1	427.0199	29	1	800	929.3580	 0.0013	 7.6312	 8.4480	 9.1646	 9.5926	 1.9377
302	3	6	13	1	339.4750	56	1	800	929.3580	 0.0013	 9.6146	10.4313	11.1480	11.4883	 1.9377
302	3	7	13	1	383.5631	56	1	800	929.3580	 0.0013	11.4979	12.3146	13.0313	13.4159	 1.9377
302	3	8	13	1	546.3833	29	1	800	929.3580	 0.0013	13.4312	14.2479	14.9647	15.5122	 1.9377
302	3	9	13	1	326.0756	56	1	800	929.3580	 0.0013	15.5312	16.3479	17.0646	17.3917	 1.9377
302	3	10	13	1	323.4388	56	1	800	929.3580	 0.0013	17.3979	18.2147	18.9313	19.2560	 1.9377
302	3	11	13	1	296.7628	56	1	800	929.3580	 0.0013	19.2645	20.0813	20.7979	21.0957	 1.9377
302	3	12	13	1	551.5272	29	1	800	929.3580	 0.0013	21.1146	21.9313	22.6479	23.2005	 1.9377
302	4	1	1	2	362.1854	56	1	800	1424.0420	 0.0023	 0.0161	 0.8328	 1.5495	 1.9127	0
302	4	2	1	2	445.1663	29	1	800	1424.0420	 0.0023	 1.9328	 2.7495	 3.4662	 3.9124	0
302	4	3	1	2	397.0169	56	1	800	1424.0420	 0.0023	 3.9328	 4.7495	 5.4662	 5.8642	0
302	4	4	1	2	606.8838	29	1	800	1424.0420	 0.0023	 5.8828	 6.6995	 7.4161	 8.0240	0
302	4	5	1	2	699.7387	1	0	800	1424.0420	 0.0023	 8.0327	 8.8495	 9.5661	10.2666	0
302	4	6	1	2	699.6140	1	0	800	1424.0420	 0.0023	 0.0115	 0.8282	 1.5449	 2.2453	0
302	4	7	1	2	410.2058	56	1	800	1424.0420	 0.0023	 0.0075	 0.8242	 1.5409	 1.9522	0
302	4	8	1	2	698.7849	1	0	800	1424.0420	 0.0023	 1.9742	 2.7909	 3.5076	 4.2080	0
302	4	9	1	2	406.7191	56	1	800	1424.0420	 0.0023	 0.0184	 0.8350	 1.5518	 1.9596	0
302	4	10	1	2	699.8593	1	0	800	1424.0420	 0.0023	 1.9684	 2.7851	 3.5018	 4.2024	0
302	4	11	1	2	316.1171	56	1	800	1424.0420	 0.0023	 0.0214	 0.8381	 1.5548	 1.8721	0
302	4	12	1	2	586.4128	29	1	800	1424.0420	 0.0023	 1.8881	 2.7048	 3.4214	 4.0089	0
302	4	13	1	2	699.6800	1	0	800	1424.0420	 0.0023	 4.0213	 4.8381	 5.5547	 6.2551	0
302	4	14	1	2	699.4803	1	0	800	1424.0420	 0.0023	 0.0245	 0.8411	 1.5579	 2.2580	0
302	4	15	1	2	699.8200	1	0	800	1424.0420	 0.0023	 0.0148	 0.8315	 1.5482	 2.2488	0
302	4	16	1	2	404.3918	29	1	800	1424.0420	 0.0023	 0.0132	 0.8299	 1.5466	 1.9520	0
302	4	17	1	2	342.8355	56	1	800	1424.0420	 0.0023	 1.9632	 2.7800	 3.4967	 3.8407	0
302	4	18	1	2	378.8165	29	1	800	1424.0420	 0.0023	 3.8632	 4.6799	 5.3966	 5.7765	0
302	4	19	1	2	699.4761	1	0	800	1424.0420	 0.0023	 5.7965	 6.6132	 7.3299	 8.0300	0
302	4	20	1	2	699.5349	1	0	800	1424.0420	 0.0023	 0.0242	 0.8408	 1.5576	 2.2580	0
302	4	21	1	2	699.4304	1	0	800	1424.0420	 0.0023	 0.0185	 0.8352	 1.5518	 2.2519	0
302	4	22	1	2	537.2636	29	0	800	1424.0420	 0.0023	 0.0163	 0.8330	 1.5496	 2.0879	0
302	4	23	1	2	351.5220	56	1	800	1424.0420	 0.0023	 0.0095	 0.8262	 1.5428	 1.8954	0
302	4	24	1	2	699.5279	1	0	800	1424.0420	 0.0023	 1.9094	 2.7261	 3.4428	 4.1430	0
302	4	25	1	2	428.3230	29	1	800	1424.0420	 0.0023	 0.0136	 0.8303	 1.5471	 1.9765	0
302	4	26	1	2	699.9189	1	0	800	1424.0420	 0.0023	 1.9969	 2.8137	 3.5303	 4.2309	0
302	4	27	1	2	699.7451	1	0	800	1424.0420	 0.0023	 0.0152	 0.8320	 1.5486	 2.2491	0
302	4	28	1	2	447.9938	56	0	800	1424.0420	 0.0023	 0.0090	 0.8257	 1.5424	 1.9914	0
302	4	29	1	2	491.8630	56	1	800	1424.0420	 0.0023	 0.0143	 0.8310	 1.5477	 2.0413	0
302	4	30	1	2	456.9563	29	1	800	1424.0420	 0.0023	 2.0644	 2.8810	 3.5977	 4.0559	0
302	5	1	1	2	463.0047	29	1	800	1523.6251	 0.0042	 0.0115	 0.8284	 1.5448	 2.0094	0
302	5	2	1	2	380.7922	56	1	800	1523.6251	 0.0042	 2.0282	 2.8449	 3.5614	 3.9432	0
302	5	3	1	2	360.3329	56	1	800	1523.6251	 0.0042	 3.9614	 4.7782	 5.4947	 5.8560	0
302	5	4	1	2	427.3944	29	1	800	1523.6251	 0.0042	 5.8781	 6.6948	 7.4114	 7.8398	0
302	5	5	1	2	419.4875	29	0	800	1523.6251	 0.0042	 7.8614	 8.6781	 9.3948	 9.8154	0
302	5	6	1	2	366.9333	56	1	800	1523.6251	 0.0042	 0.0177	 0.8345	 1.5511	 1.9191	0
302	5	7	1	2	578.6646	56	1	800	1523.6251	 0.0042	 1.9344	 2.7511	 3.4678	 4.0474	0
302	5	8	1	2	628.8881	29	1	800	1523.6251	 0.0042	 4.0678	 4.8845	 5.6010	 6.2309	0
302	5	9	1	2	342.0000	56	1	800	1523.6251	 0.0042	 6.2511	 7.0678	 7.7844	 8.1275	0
302	5	10	1	2	490.0514	29	1	800	1523.6251	 0.0042	 8.1344	 8.9511	 9.6678	10.1588	0
302	5	11	1	2	553.3272	29	1	800	1523.6251	 0.0042	10.1677	10.9844	11.7011	12.2554	0
302	5	12	1	2	693.0218	29	1	800	1523.6251	 0.0042	12.2677	13.0845	13.8011	14.4951	0
302	5	1	2	2	367.6267	56	1	800	1523.6251	 0.0042	 0.0108	 0.8277	 1.5442	 1.9133	14.4979
302	5	2	2	2	536.8211	29	1	800	1523.6251	 0.0042	 1.9275	 2.7442	 3.4609	 3.9988	14.4979
302	5	3	2	2	438.0758	29	1	800	1523.6251	 0.0042	 4.0108	 4.8276	 5.5443	 5.9832	14.4979
302	5	4	2	2	582.6202	29	1	800	1523.6251	 0.0042	 5.9942	 6.8108	 7.5276	 8.1115	14.4979
302	5	5	2	2	417.0032	56	1	800	1523.6251	 0.0042	 8.1275	 8.9442	 9.6608	10.0789	14.4979
302	5	6	2	2	314.1272	56	1	800	1523.6251	 0.0042	10.0941	10.9109	11.6276	11.9428	14.4979
302	5	7	2	2	503.4518	29	0	800	1523.6251	 0.0042	11.9609	12.7775	13.4943	13.9988	14.4979
302	5	8	2	2	430.8932	29	1	800	1523.6251	 0.0042	 0.0183	 0.8351	 1.5517	 1.9836	14.4979
302	5	9	2	2	311.4307	56	1	800	1523.6251	 0.0042	 2.0017	 2.8183	 3.5351	 3.8476	14.4979
302	5	10	2	2	381.5599	29	1	800	1523.6251	 0.0042	 3.8683	 4.6850	 5.4017	 5.7842	14.4979
302	5	11	2	2	576.2924	29	1	800	1523.6251	 0.0042	 5.8017	 6.6184	 7.3351	 7.9123	14.4979
302	5	12	2	2	330.9583	56	1	800	1523.6251	 0.0042	 7.9183	 8.7351	 9.4517	 9.7837	14.4979
302	5	1	3	2	519.6333	29	1	800	1523.6251	 0.0042	 0.0181	 0.8347	 1.5514	 2.0721	 9.7864
302	5	2	3	2	389.0192	29	1	800	1523.6251	 0.0042	 2.0847	 2.9014	 3.6181	 4.0082	 9.7864
302	5	3	3	2	327.8916	56	1	800	1523.6251	 0.0042	 4.0180	 4.8347	 5.5513	 5.8803	 9.7864
302	5	4	3	2	436.0620	56	1	800	1523.6251	 0.0042	 5.9014	 6.7180	 7.4348	 7.8718	 9.7864
302	5	5	3	2	269.6272	56	1	800	1523.6251	 0.0042	 7.8847	 8.7014	 9.4181	 9.6887	 9.7864
302	5	6	3	2	389.0365	29	1	800	1523.6251	 0.0042	 9.7014	10.5181	11.2347	11.6248	 9.7864
302	5	7	3	2	311.2513	56	1	800	1523.6251	 0.0042	11.6347	12.4514	13.1681	13.4804	 9.7864
302	5	8	3	2	412.2982	29	1	800	1523.6251	 0.0042	13.5014	14.3181	15.0347	15.4481	 9.7864
302	5	9	3	2	389.5640	29	1	800	1523.6251	 0.0042	15.4680	16.2848	17.0014	17.3922	 9.7864
302	5	10	3	2	304.9432	56	1	800	1523.6251	 0.0042	17.4014	18.2180	18.9348	19.2408	 9.7864
302	5	11	3	2	407.0369	29	1	800	1523.6251	 0.0042	19.2513	20.0681	20.7847	21.1928	 9.7864
302	5	12	3	2	384.2040	56	1	800	1523.6251	 0.0042	21.2013	22.0181	22.7348	23.1203	 9.7864
302	6	1	1	2	399.6022	29	1	800	1674.1756	 0.0016	 0.0181	 0.8348	 1.5514	 1.9522	0
302	6	2	1	2	521.9693	29	1	800	1674.1756	 0.0016	 1.9680	 2.7848	 3.5013	 4.0244	0
302	6	3	1	2	438.7790	29	1	800	1674.1756	 0.0016	 4.0347	 4.8514	 5.5681	 6.0081	0
302	6	4	1	2	432.1347	56	1	800	1674.1756	 0.0016	 6.0180	 6.8347	 7.5515	 7.9846	0
302	6	5	1	2	480.8259	29	1	800	1674.1756	 0.0016	 8.0013	 8.8181	 9.5348	10.0166	0
302	6	6	1	2	406.9041	29	1	800	1674.1756	 0.0016	10.0349	10.8513	11.5682	11.9761	0
302	6	7	1	2	473.1624	56	1	800	1674.1756	 0.0016	11.9847	12.8014	13.5181	13.9923	0
302	6	8	1	2	312.7074	56	1	800	1674.1756	 0.0016	14.0013	14.8181	15.5347	15.8484	0
302	6	9	1	2	357.6138	56	1	800	1674.1756	 0.0016	15.8681	16.6848	17.4014	17.7602	0
302	6	10	1	2	465.6452	29	1	800	1674.1756	 0.0016	17.7680	18.5848	19.3015	19.7682	0
302	6	11	1	2	465.7189	29	1	800	1674.1756	 0.0016	19.7847	20.6015	21.3180	21.7848	0
302	6	12	1	2	416.3404	56	1	800	1674.1756	 0.0016	21.8013	22.6181	23.3347	23.7522	0
302	6	13	1	2	481.5933	29	1	800	1674.1756	 0.0016	23.7680	24.5848	25.3015	25.7842	0
302	6	14	1	2	295.9301	56	1	800	1674.1756	 0.0016	25.8014	26.6181	27.3348	27.6319	0
302	6	15	1	2	398.1586	56	1	800	1674.1756	 0.0016	27.6514	28.4681	29.1847	29.5839	0
302	6	16	1	2	408.1114	29	1	800	1674.1756	 0.0016	29.6014	30.4181	31.1348	31.5438	0
302	6	17	1	2	297.9977	56	1	800	1674.1756	 0.0016	31.5513	32.3680	33.0848	33.3838	0
302	6	18	1	2	384.2018	29	1	800	1674.1756	 0.0016	33.4014	34.2180	34.9347	35.3200	0
302	6	19	1	2	602.9367	29	1	800	1674.1756	 0.0016	35.3347	36.1513	36.8681	37.4721	0
302	6	20	1	2	468.9449	29	1	800	1674.1756	 0.0016	37.4847	38.3014	39.0181	39.4881	0
302	6	21	1	2	372.8387	56	1	800	1674.1756	 0.0016	39.5013	40.3181	41.0347	41.4084	0
302	6	22	1	2	415.8179	56	1	800	1674.1756	 0.0016	41.4180	42.2347	42.9515	43.3684	0
302	6	23	1	2	577.8110	29	1	800	1674.1756	 0.0016	43.3848	44.2014	44.9181	45.4969	0
302	6	24	1	2	363.5675	29	1	800	1674.1756	 0.0016	45.5180	46.3348	47.0515	47.4162	0
302	6	25	1	2	431.6348	29	0	800	1674.1756	 0.0016	47.4347	48.2514	48.9681	49.4007	0
302	6	26	1	2	422.3118	29	1	800	1674.1756	 0.0016	 0.0200	 0.8367	 1.5534	 1.9766	0
302	6	27	1	2	374.9354	56	1	800	1674.1756	 0.0016	 1.9867	 2.8034	 3.5201	 3.8964	0
302	6	28	1	2	338.4767	29	1	800	1674.1756	 0.0016	 3.9033	 4.7200	 5.4367	 5.7763	0
302	6	29	1	2	654.8224	29	1	800	1674.1756	 0.0016	 5.7867	 6.6033	 7.3200	 7.9759	0
302	6	30	1	2	375.5000	29	1	800	1674.1756	 0.0016	 7.9867	 8.8034	 9.5201	 9.8964	0
302	7	1	1	3	374.3097	29	1	800	1753.0916	 0.0011	 0.0189	 0.8356	 1.5523	 1.9277	0
302	7	2	1	3	337.4889	56	1	800	1753.0916	 0.0011	 1.9356	 2.7523	 3.4689	 3.8076	0
302	7	3	1	3	534.6628	29	1	800	1753.0916	 0.0011	 3.8189	 4.6357	 5.3523	 5.8880	0
302	7	4	1	3	522.7660	29	1	800	1753.0916	 0.0011	 5.9022	 6.7189	 7.4356	 7.9594	0
302	7	5	1	3	504.1703	29	1	800	1753.0916	 0.0011	 7.9690	 8.7856	 9.5023	10.0075	0
302	7	6	1	3	326.3523	56	1	800	1753.0916	 0.0011	10.0189	10.8357	11.5523	11.8796	0
302	7	7	1	3	452.0305	29	1	800	1753.0916	 0.0011	11.8856	12.7023	13.4190	13.8719	0
302	7	8	1	3	419.4220	29	1	800	1753.0916	 0.0011	13.8856	14.7023	15.4189	15.8394	0
302	7	9	1	3	421.1290	29	1	800	1753.0916	 0.0011	15.8522	16.6690	17.3857	17.8079	0
302	7	10	1	3	495.1845	56	1	800	1753.0916	 0.0011	17.8189	18.6356	19.3523	19.8485	0
302	7	11	1	3	388.8782	29	1	800	1753.0916	 0.0011	19.8689	20.6856	21.4023	21.7920	0
302	7	12	1	3	414.8562	56	1	800	1753.0916	 0.0011	21.8022	22.6189	23.3356	23.7516	0
302	8	1	1	3	413.3986	56	1	800	1813.9913	 0.0010	 0.0038	 0.8204	 1.5372	 1.9517	0
302	8	2	1	3	286.6208	56	1	800	1813.9913	 0.0010	 1.9705	 2.7872	 3.5038	 3.7919	0
302	8	3	1	3	414.3948	29	1	800	1813.9913	 0.0010	 3.8038	 4.6205	 5.3371	 5.7525	0
302	8	4	1	3	463.2821	29	1	800	1813.9913	 0.0010	 5.7705	 6.5872	 7.3038	 7.7684	0
302	8	5	1	3	582.9161	29	1	800	1813.9913	 0.0010	 7.7871	 8.6039	 9.3204	 9.9042	0
302	8	6	1	3	457.2536	29	1	800	1813.9913	 0.0010	 9.9205	10.7372	11.4539	11.9122	0
302	8	7	1	3	433.1586	56	1	800	1813.9913	 0.0010	11.9205	12.7372	13.4538	13.8880	0
302	8	8	1	3	346.0566	56	1	800	1813.9913	 0.0010	13.9038	14.7205	15.4372	15.7842	0
302	8	9	1	3	573.6506	56	1	800	1813.9913	 0.0010	15.8038	16.6205	17.3371	17.9118	0
302	8	10	1	3	368.6852	56	1	800	1813.9913	 0.0010	17.9204	18.7372	19.4539	19.8236	0
302	8	11	1	3	476.9317	29	0	800	1813.9913	 0.0010	19.8371	20.6539	21.3705	21.8484	0
302	8	12	1	3	325.0758	56	1	800	1813.9913	 0.0010	 0.0119	 0.8286	 1.5454	 1.8717	0
302	8	13	1	3	482.0784	56	1	800	1813.9913	 0.0010	 1.8785	 2.6953	 3.4120	 3.8951	0
302	8	14	1	3	409.2456	29	1	800	1813.9913	 0.0010	 3.9119	 4.7286	 5.4453	 5.8556	0
302	8	15	1	3	699.6715	1	0	800	1813.9913	 0.0010	 5.8619	 6.6786	 7.3953	 8.0956	0
302	8	16	1	3	317.3994	56	1	800	1813.9913	 0.0010	 0.0200	 0.8368	 1.5534	 1.8717	0
302	8	17	1	3	275.1977	56	1	800	1813.9913	 0.0010	 1.8866	 2.7034	 3.4201	 3.6964	0
302	8	18	1	3	498.3199	29	1	800	1813.9913	 0.0010	 3.7033	 4.5200	 5.2367	 5.7363	0
302	8	19	1	3	448.5361	29	1	800	1813.9913	 0.0010	 5.7534	 6.5701	 7.2868	 7.7364	0
302	8	20	1	3	496.2506	56	1	800	1813.9913	 0.0010	 7.7533	 8.5701	 9.2867	 9.7840	0
302	8	21	1	3	518.2488	29	1	800	1813.9913	 0.0010	 9.8033	10.6201	11.3366	11.8559	0
302	8	22	1	3	427.4051	29	1	800	1813.9913	 0.0010	11.8700	12.6867	13.4034	13.8320	0
302	8	23	1	3	699.5348	1	0	800	1813.9913	 0.0010	13.8533	14.6700	15.3867	16.0871	0
302	8	24	1	3	288.0973	56	1	800	1813.9913	 0.0010	 0.0087	 0.8254	 1.5421	 1.8313	0
302	8	25	1	3	311.4317	56	1	800	1813.9913	 0.0010	 1.8421	 2.6588	 3.3754	 3.6877	0
302	8	26	1	3	372.5650	56	1	800	1813.9913	 0.0010	 3.7087	 4.5254	 5.2420	 5.6158	0
302	8	27	1	3	440.1824	29	0	800	1813.9913	 0.0010	 5.6253	 6.4421	 7.1587	 7.5998	0
302	8	28	1	3	403.0352	29	1	800	1813.9913	 0.0010	 0.0143	 0.8311	 1.5478	 1.9518	0
302	8	29	1	3	389.1906	29	1	800	1813.9913	 0.0010	 1.9643	 2.7811	 3.4977	 3.8882	0
302	8	30	1	3	424.1029	56	1	800	1813.9913	 0.0010	 3.8978	 4.7143	 5.4311	 5.8564	0
302	9	1	1	3	657.1489	29	1	800	1895.4746	 0.0007	 0.0163	 0.8329	 1.5496	 2.2078	0
302	9	2	1	3	464.6776	56	1	800	1895.4746	 0.0007	 2.2161	 3.0330	 3.7496	 4.2153	0
302	9	3	1	3	393.6182	29	1	800	1895.4746	 0.0007	 4.2328	 5.0495	 5.7662	 6.1610	0
302	9	4	1	3	442.0777	56	1	800	1895.4746	 0.0007	 6.1829	 6.9995	 7.7162	 8.1593	0
302	9	5	1	3	362.7438	29	1	800	1895.4746	 0.0007	 8.1662	 8.9829	 9.6996	10.0634	0
302	9	6	1	3	526.1680	29	1	800	1895.4746	 0.0007	10.0829	10.8996	11.6162	12.1434	0
302	9	7	1	3	419.5868	29	1	800	1895.4746	 0.0007	12.1662	12.9829	13.6996	14.1202	0
302	9	8	1	3	388.2442	56	1	800	1895.4746	 0.0007	14.1328	14.9496	15.6663	16.0556	0
302	9	9	1	3	350.7202	56	1	800	1895.4746	 0.0007	16.0663	16.8829	17.5996	17.9516	0
302	9	10	1	3	339.1748	56	1	800	1895.4746	 0.0007	17.9662	18.7830	19.4995	19.8397	0
302	9	11	1	3	375.8565	29	1	800	1895.4746	 0.0007	19.8495	20.6663	21.3829	21.7598	0
302	9	12	1	3	514.7205	56	1	800	1895.4746	 0.0007	21.7662	22.5830	23.2996	23.8153	0
302	10	1	1	4	379.5787	56	1	800	1939.1247	 0.0007	 0.0137	 0.8304	 1.5470	 1.9276	0
302	10	2	1	4	357.9419	56	1	800	1939.1247	 0.0007	 1.9470	 2.7638	 3.4805	 3.8395	0
302	10	3	1	4	434.9821	29	1	800	1939.1247	 0.0007	 3.8470	 4.6638	 5.3804	 5.8164	0
302	10	4	1	4	403.2441	29	1	800	1939.1247	 0.0007	 5.8303	 6.6470	 7.3637	 7.7681	0
302	10	5	1	4	341.6433	56	1	800	1939.1247	 0.0007	 7.7803	 8.5971	 9.3137	 9.6563	0
302	10	6	1	4	345.4965	56	1	800	1939.1247	 0.0007	 9.6637	10.4805	11.1971	11.5436	0
302	10	7	1	4	390.2196	29	1	800	1939.1247	 0.0007	11.5637	12.3804	13.0970	13.4882	0
302	10	8	1	4	440.4877	29	1	800	1939.1247	 0.0007	13.4970	14.3137	15.0305	15.4720	0
302	10	9	1	4	313.1754	56	1	800	1939.1247	 0.0007	15.4803	16.2970	17.0137	17.3279	0
302	10	10	1	4	390.2135	29	1	800	1939.1247	 0.0007	17.3470	18.1637	18.8804	19.2716	0
302	10	11	1	4	699.4256	1	0	800	1939.1247	 0.0007	19.2803	20.0970	20.8138	21.5139	0
302	10	12	1	4	699.7795	1	0	800	1939.1247	 0.0007	 0.0070	 0.8237	 1.5405	 2.2409	0
302	10	13	1	4	424.9043	56	1	800	1939.1247	 0.0007	 0.0169	 0.8337	 1.5504	 1.9763	0
302	10	14	1	4	345.7200	56	1	800	1939.1247	 0.0007	 1.9836	 2.8003	 3.5170	 3.8638	0
302	10	15	1	4	301.4034	56	1	800	1939.1247	 0.0007	 3.8836	 4.7004	 5.4170	 5.7194	0
302	10	16	1	4	364.1728	29	1	800	1939.1247	 0.0007	 5.7336	 6.5504	 7.2671	 7.6322	0
302	10	17	1	4	350.8131	56	1	800	1939.1247	 0.0007	 7.6503	 8.4670	 9.1837	 9.5355	0
302	10	18	1	4	491.8491	29	1	800	1939.1247	 0.0007	 9.5503	10.3671	11.0837	11.5767	0
302	10	19	1	4	377.8890	29	1	800	1939.1247	 0.0007	11.5836	12.4003	13.1170	13.4961	0
302	10	20	1	4	460.0920	29	1	800	1939.1247	 0.0007	13.5169	14.3337	15.0503	15.5115	0
302	10	21	1	4	363.8492	29	1	800	1939.1247	 0.0007	15.5337	16.3503	17.0670	17.4318	0
302	10	22	1	4	559.5952	29	1	800	1939.1247	 0.0007	17.4503	18.2671	18.9837	19.5442	0
302	10	23	1	4	403.1554	29	1	800	1939.1247	 0.0007	19.5503	20.3670	21.0837	21.4879	0
302	10	24	1	4	428.8735	29	0	800	1939.1247	 0.0007	21.5003	22.3170	23.0337	23.4636	0
302	10	25	1	4	359.7751	56	1	800	1939.1247	 0.0007	 0.0102	 0.8269	 1.5436	 1.9045	0
302	10	26	1	4	339.5892	56	1	800	1939.1247	 0.0007	 1.9269	 2.7437	 3.4602	 3.8007	0
302	10	27	1	4	375.8255	29	1	800	1939.1247	 0.0007	 3.8101	 4.6271	 5.3436	 5.7204	0
302	10	28	1	4	387.1284	29	1	800	1939.1247	 0.0007	 5.7268	 6.5435	 7.2603	 7.6485	0
302	10	29	1	4	390.1927	29	1	800	1939.1247	 0.0007	 7.6601	 8.4769	 9.1936	 9.5847	0
302	10	30	1	4	512.4772	29	1	800	1939.1247	 0.0007	 9.5935	10.4102	11.1268	11.6403	0
302	11	1	1	4	441.4567	56	1	800	2025.3580	 0.0011	 0.0074	 0.8241	 1.5407	 1.9832	0
302	11	2	1	4	322.9423	56	1	800	2025.3580	 0.0011	 1.9907	 2.8075	 3.5241	 3.8480	0
302	11	3	1	4	367.9516	56	1	800	2025.3580	 0.0011	 3.8574	 4.6741	 5.3907	 5.7597	0
302	11	4	1	4	331.5085	29	1	800	2025.3580	 0.0011	 5.7740	 6.5908	 7.3074	 7.6398	0
302	11	5	1	4	520.1513	29	0	800	2025.3580	 0.0011	 7.6574	 8.4741	 9.1908	 9.7118	0
302	11	6	1	4	523.5159	29	1	800	2025.3580	 0.0011	 0.0133	 0.8301	 1.5469	 2.0714	0
302	11	7	1	4	360.8851	29	0	800	2025.3580	 0.0011	 2.0800	 2.8967	 3.6135	 3.9755	0
302	11	8	1	4	428.9140	56	1	800	2025.3580	 0.0011	 0.0206	 0.8373	 1.5539	 1.9839	0
302	11	9	1	4	333.8417	56	1	800	2025.3580	 0.0011	 2.0038	 2.8206	 3.5372	 3.8722	0
302	11	10	1	4	402.2336	29	0	800	2025.3580	 0.0011	 3.8871	 4.7039	 5.4207	 5.8240	0
302	11	11	1	4	526.0270	29	1	800	2025.3580	 0.0011	 0.0208	 0.8375	 1.5542	 2.0813	0
302	11	12	1	4	475.0285	29	1	800	2025.3580	 0.0011	 2.0874	 2.9042	 3.6208	 4.0968	0
302	11	1	2	4	699.4503	1	0	800	2025.3580	 0.0011	 0.0112	 0.8280	 1.5446	 2.2448	 4.0997
302	11	2	2	4	321.9054	56	1	800	2025.3580	 0.0011	 0.0081	 0.8248	 1.5415	 1.8644	 4.0997
302	11	3	2	4	375.1378	56	1	800	2025.3580	 0.0011	 1.8748	 2.6916	 3.4082	 3.7844	 4.0997
302	11	4	2	4	474.3463	29	1	800	2025.3580	 0.0011	 3.7914	 4.6082	 5.3249	 5.8004	 4.0997
302	11	5	2	4	394.2593	56	1	800	2025.3580	 0.0011	 5.8081	 6.6249	 7.3415	 7.7367	 4.0997
302	11	6	2	4	484.2793	29	1	800	2025.3580	 0.0011	 7.7582	 8.5748	 9.2916	 9.7769	 4.0997
302	11	7	2	4	370.1799	56	1	800	2025.3580	 0.0011	 9.7915	10.6081	11.3249	11.6961	 4.0997
302	11	8	2	4	333.6356	56	1	800	2025.3580	 0.0011	11.7081	12.5248	13.2414	13.5761	 4.0997
302	11	9	2	4	290.6031	56	1	800	2025.3580	 0.0011	13.5915	14.4081	15.1249	15.4165	 4.0997
302	11	10	2	4	433.3170	56	1	800	2025.3580	 0.0011	15.4248	16.2415	16.9582	17.3925	 4.0997
302	11	11	2	4	393.5774	29	1	800	2025.3580	 0.0011	17.4081	18.2248	18.9415	19.3369	 4.0997
302	11	12	2	4	380.0238	29	1	800	2025.3580	 0.0011	19.3581	20.1749	20.8915	21.2726	 4.0997
302	11	1	3	4	459.0274	29	0	800	2025.3580	 0.0011	 0.0148	 0.8311	 1.5477	 2.0078	21.2764
302	11	2	3	4	338.3999	56	1	800	2025.3580	 0.0011	 0.0073	 0.8240	 1.5407	 1.8801	21.2764
302	11	3	3	4	286.7044	56	1	800	2025.3580	 0.0011	 1.8906	 2.7074	 3.4240	 3.7117	21.2764
302	11	4	3	4	509.8850	29	1	800	2025.3580	 0.0011	 3.7240	 4.5407	 5.2573	 5.7681	21.2764
302	11	5	3	4	636.3434	29	1	800	2025.3580	 0.0011	 5.7739	 6.5907	 7.3073	 7.9447	21.2764
302	11	6	3	4	396.1922	29	1	800	2025.3580	 0.0011	 7.9573	 8.7740	 9.4907	 9.8880	21.2764
302	11	7	3	4	534.8890	29	1	800	2025.3580	 0.0011	 9.9073	10.7240	11.4406	11.9763	21.2764
302	11	8	3	4	347.5267	56	1	800	2025.3580	 0.0011	11.9906	12.8073	13.5240	13.8725	21.2764
302	11	9	3	4	455.1819	29	1	800	2025.3580	 0.0011	13.8906	14.7073	15.4239	15.8801	21.2764
302	11	10	3	4	479.0746	56	0	800	2025.3580	 0.0011	15.8906	16.7073	17.4240	17.9041	21.2764
302	11	11	3	4	296.7770	56	1	800	2025.3580	 0.0011	 0.0170	 0.8336	 1.5504	 1.8481	21.2764
302	11	12	3	4	310.4530	56	1	800	2025.3580	 0.0011	 1.8669	 2.6837	 3.4003	 3.7119	21.2764
302	11	1	4	4	426.7395	29	1	800	2025.3580	 0.0011	 0.0065	 0.8232	 1.5399	 1.9676	 3.7147
302	11	2	4	4	300.0955	29	1	800	2025.3580	 0.0011	 1.9898	 2.8065	 3.5232	 3.8243	 3.7147
302	11	3	4	4	369.4000	56	1	800	2025.3580	 0.0011	 3.8398	 4.6565	 5.3733	 5.7436	 3.7147
302	11	4	4	4	396.9894	56	1	800	2025.3580	 0.0011	 5.7565	 6.5732	 7.2898	 7.6879	 3.7147
302	11	5	4	4	397.8746	29	1	800	2025.3580	 0.0011	 7.7399	 8.5566	 9.2732	 9.6721	 3.7147
302	11	6	4	4	415.5773	56	1	800	2025.3580	 0.0011	 9.6898	10.5066	11.2232	11.6398	 3.7147
302	11	7	4	4	496.8402	56	1	800	2025.3580	 0.0011	11.6565	12.4732	13.1899	13.6878	 3.7147
302	11	8	4	4	334.8248	56	1	800	2025.3580	 0.0011	13.7065	14.5233	15.2398	15.5757	 3.7147
302	11	9	4	4	435.5840	29	1	800	2025.3580	 0.0011	15.5898	16.4066	17.1232	17.5599	 3.7147
302	11	10	4	4	404.2249	29	1	800	2025.3580	 0.0011	17.5731	18.3899	19.1065	19.5120	 3.7147
302	11	11	4	4	351.0188	56	1	800	2025.3580	 0.0011	19.5231	20.3399	21.0565	21.4085	 3.7147
302	11	12	4	4	394.0854	29	1	800	2025.3580	 0.0011	21.4232	22.2399	22.9566	23.3517	 3.7147
302	12	1	1	4	378.0927	56	1	800	2189.5746	 0.0007	 0.0072	 0.8239	 1.5406	 1.9198	0
302	12	2	1	4	380.7133	29	1	800	2189.5746	 0.0007	 1.9405	 2.7572	 3.4739	 3.8557	0
302	12	3	1	4	471.9866	29	1	800	2189.5746	 0.0007	 3.8739	 4.6905	 5.4072	 5.8802	0
302	12	4	1	4	359.6374	56	1	800	2189.5746	 0.0007	 5.8905	 6.7072	 7.4239	 7.7846	0
302	12	5	1	4	379.2787	29	1	800	2189.5746	 0.0007	 7.7905	 8.6072	 9.3239	 9.7042	0
302	12	6	1	4	365.7832	29	1	800	2189.5746	 0.0007	 9.7238	10.5406	11.2573	11.6243	0
302	12	7	1	4	505.3255	56	1	800	2189.5746	 0.0007	11.6405	12.4573	13.1739	13.6803	0
302	12	8	1	4	350.8139	56	1	800	2189.5746	 0.0007	13.6905	14.5073	15.2239	15.5758	0
302	12	9	1	4	354.6455	29	1	800	2189.5746	 0.0007	15.5905	16.4072	17.1238	17.4797	0
302	12	10	1	4	343.3125	56	1	800	2189.5746	 0.0007	17.4905	18.3073	19.0239	19.3682	0
302	12	11	1	4	379.3492	29	1	800	2189.5746	 0.0007	19.3738	20.1905	20.9073	21.2876	0
302	12	12	1	4	422.5213	56	1	800	2189.5746	 0.0007	21.3072	22.1240	22.8406	23.2642	0
302	12	13	1	4	383.4675	29	1	800	2189.5746	 0.0007	23.2738	24.0906	24.8073	25.1918	0
302	12	14	1	4	298.0623	56	1	800	2189.5746	 0.0007	25.2072	26.0239	26.7406	27.0396	0
302	12	15	1	4	312.5575	56	1	800	2189.5746	 0.0007	27.0572	27.8738	28.5906	28.9043	0
302	12	16	1	4	350.1887	29	1	800	2189.5746	 0.0007	28.9238	29.7406	30.4572	30.8083	0
302	12	17	1	4	377.6975	29	1	800	2189.5746	 0.0007	30.8238	31.6406	32.3572	32.7359	0
302	12	18	1	4	356.2366	29	1	800	2189.5746	 0.0007	32.7572	33.5739	34.2906	34.6479	0
302	12	19	1	4	600.9904	56	0	800	2189.5746	 0.0007	34.6571	35.4739	36.1906	36.7934	0
302	12	20	1	4	313.3998	56	1	800	2189.5746	 0.0007	 0.0074	 0.8241	 1.5409	 1.8553	0
302	12	21	1	4	454.9521	29	1	800	2189.5746	 0.0007	 1.8741	 2.6908	 3.4074	 3.8635	0
302	12	22	1	4	519.0224	29	1	800	2189.5746	 0.0007	 3.8741	 4.6908	 5.4076	 5.9278	0
302	12	23	1	4	325.1263	56	1	800	2189.5746	 0.0007	 5.9408	 6.7575	 7.4741	 7.8003	0
302	12	24	1	4	313.8272	56	1	800	2189.5746	 0.0007	 7.8074	 8.6242	 9.3408	 9.6557	0
302	12	25	1	4	399.2427	56	0	800	2189.5746	 0.0007	 9.6741	10.4908	11.2075	11.6078	0
302	12	26	1	4	299.3674	56	1	800	2189.5746	 0.0007	 0.0146	 0.8313	 1.5480	 1.8483	0
302	12	27	1	4	312.8462	56	1	800	2189.5746	 0.0007	 1.8645	 2.6813	 3.3979	 3.7119	0
302	12	28	1	4	454.4008	56	1	800	2189.5746	 0.0007	 3.7312	 4.5480	 5.2646	 5.7201	0
302	12	29	1	4	342.7870	29	1	800	2189.5746	 0.0007	 5.7312	 6.5480	 7.2646	 7.6083	0
302	12	30	1	4	331.0420	56	1	800	2189.5746	 0.0007	 7.6145	 8.4313	 9.1480	 9.4801	0
302	13	1	1	5	418.5005	29	1	800	2265.9580	 0.0007	 0.0146	 0.8312	 1.5480	 1.9675	0
302	13	2	1	5	308.2796	56	1	800	2265.9580	 0.0007	 1.9812	 2.7980	 3.5146	 3.8238	0
302	13	3	1	5	489.5467	29	1	800	2265.9580	 0.0007	 3.8312	 4.6480	 5.3646	 5.8552	0
302	13	4	1	5	512.8951	29	1	800	2265.9580	 0.0007	 5.8645	 6.6813	 7.3980	 7.9118	0
302	13	5	1	5	462.1603	29	1	800	2265.9580	 0.0007	 7.9312	 8.7480	 9.4646	 9.9278	0
302	13	6	1	5	373.6048	56	1	800	2265.9580	 0.0007	 9.9479	10.7645	11.4813	11.8559	0
302	13	7	1	5	384.0488	56	1	800	2265.9580	 0.0007	11.8645	12.6813	13.3980	13.7832	0
302	13	8	1	5	419.1037	29	1	800	2265.9580	 0.0007	13.7979	14.6146	15.3313	15.7514	0
302	13	9	1	5	340.4250	56	1	800	2265.9580	 0.0007	15.7645	16.5813	17.2980	17.6398	0
302	13	10	1	5	448.9636	29	1	800	2265.9580	 0.0007	17.6479	18.4646	19.1813	19.6313	0
302	13	11	1	5	264.7792	56	1	800	2265.9580	 0.0007	19.6479	20.4646	21.1812	21.4470	0
302	13	12	1	5	488.8444	29	1	800	2265.9580	 0.0007	21.4645	22.2812	22.9980	23.4877	0
302	14	1	1	5	306.9361	56	1	800	2350.8580	 0.0007	 0.0141	 0.8307	 1.5475	 1.8555	0
302	14	2	1	5	312.9100	56	1	800	2350.8580	 0.0007	 1.8641	 2.6808	 3.3975	 3.7115	0
302	14	3	1	5	574.8335	29	1	800	2350.8580	 0.0007	 3.7307	 4.5475	 5.2641	 5.8400	0
302	14	4	1	5	338.1323	56	1	800	2350.8580	 0.0007	 5.8474	 6.6641	 7.3808	 7.7199	0
302	14	5	1	5	294.0831	56	1	800	2350.8580	 0.0007	 7.7307	 8.5474	 9.2641	 9.5593	0
302	14	6	1	5	372.0276	29	1	800	2350.8580	 0.0007	 9.5807	10.3974	11.1142	11.4872	0
302	14	7	1	5	336.2819	56	1	800	2350.8580	 0.0007	11.4974	12.3141	13.0308	13.3680	0
302	14	8	1	5	404.1836	29	1	800	2350.8580	 0.0007	13.3807	14.1975	14.9141	15.3192	0
302	14	9	1	5	614.9177	29	1	800	2350.8580	 0.0007	15.3307	16.1475	16.8642	17.4800	0
302	14	10	1	5	551.7431	56	1	800	2350.8580	 0.0007	17.4974	18.3141	19.0308	19.5836	0
302	14	11	1	5	259.7129	56	1	800	2350.8580	 0.0007	19.5974	20.4141	21.1309	21.3917	0
302	14	12	1	5	563.8171	29	0	800	2350.8580	 0.0007	21.3974	22.2142	22.9308	23.4956	0
302	14	13	1	5	386.1840	29	1	800	2350.8580	 0.0007	 0.0079	 0.8242	 1.5409	 1.9282	0
302	14	14	1	5	699.9705	1	0	800	2350.8580	 0.0007	 1.9408	 2.7575	 3.4743	 4.1749	0
302	14	15	1	5	479.7109	29	1	800	2350.8580	 0.0007	 0.0097	 0.8264	 1.5431	 2.0240	0
302	14	16	1	5	334.8503	56	1	800	2350.8580	 0.0007	 2.0430	 2.8597	 3.5764	 3.9122	0
302	14	17	1	5	387.2846	29	1	800	2350.8580	 0.0007	 3.9263	 4.7430	 5.4597	 5.8480	0
302	14	18	1	5	342.2574	29	0	800	2350.8580	 0.0007	 5.8597	 6.6763	 7.3930	 7.7363	0
302	14	19	1	5	281.8844	56	1	800	2350.8580	 0.0007	 0.0157	 0.8324	 1.5491	 1.8322	0
302	14	20	1	5	296.4820	56	1	800	2350.8580	 0.0007	 1.8490	 2.6657	 3.3824	 3.6800	0
302	14	21	1	5	454.8153	56	1	800	2350.8580	 0.0007	 3.6990	 4.5158	 5.2324	 5.6882	0
302	14	22	1	5	374.9224	29	1	800	2350.8580	 0.0007	 5.6990	 6.5158	 7.2324	 7.6083	0
302	14	23	1	5	257.4114	56	1	800	2350.8580	 0.0007	 7.6156	 8.4324	 9.1491	 9.4075	0
302	14	24	1	5	377.8623	56	1	800	2350.8580	 0.0007	 9.4157	10.2325	10.9491	11.3280	0
302	14	25	1	5	396.8212	29	1	800	2350.8580	 0.0007	11.3490	12.1657	12.8824	13.2802	0
302	14	26	1	5	470.8930	29	1	800	2350.8580	 0.0007	13.2990	14.1158	14.8324	15.3043	0
302	14	27	1	5	366.1756	56	1	800	2350.8580	 0.0007	15.3158	16.1324	16.8491	17.2163	0
302	14	28	1	5	305.3102	56	1	800	2350.8580	 0.0007	17.2323	18.0491	18.7657	19.0720	0
302	14	29	1	5	262.7482	56	1	800	2350.8580	 0.0007	19.0823	19.8990	20.6157	20.8796	0
302	14	30	1	5	310.0427	56	1	800	2350.8580	 0.0007	20.8990	21.7157	22.4325	22.7435	0
302	15	1	1	5	426.1172	29	0	800	2420.5580	 0.0007	 0.0066	 0.8234	 1.5400	 1.9672	0
302	15	2	1	5	454.2488	29	1	800	2420.5580	 0.0007	 0.0190	 0.8358	 1.5524	 2.0077	0
302	15	3	1	5	454.3871	29	1	800	2420.5580	 0.0007	 2.0190	 2.8357	 3.5524	 4.0078	0
302	15	4	1	5	390.0855	29	1	800	2420.5580	 0.0007	 4.0190	 4.8358	 5.5524	 5.9435	0
302	15	5	1	5	376.7529	29	1	800	2420.5580	 0.0007	 5.9523	 6.7691	 7.4858	 7.8635	0
302	15	6	1	5	308.1316	56	1	800	2420.5580	 0.0007	 7.8857	 8.7024	 9.4190	 9.7282	0
302	15	7	1	5	449.6339	29	0	800	2420.5580	 0.0007	 9.7357	10.5524	11.2691	11.7198	0
302	15	8	1	5	319.8732	56	1	800	2420.5580	 0.0007	 0.0173	 0.8341	 1.5507	 1.8716	0
302	15	9	1	5	317.2654	56	1	800	2420.5580	 0.0007	 1.8840	 2.7008	 3.4174	 3.7357	0
302	15	10	1	5	266.1064	56	1	800	2420.5580	 0.0007	 3.7507	 4.5674	 5.2840	 5.5511	0
302	15	11	1	5	545.7972	29	1	800	2420.5580	 0.0007	 5.5673	 6.3840	 7.1008	 7.6476	0
302	15	12	1	5	469.6033	56	1	800	2420.5580	 0.0007	 7.6673	 8.4841	 9.2006	 9.6716	0
302	15	1	2	5	366.3268	56	1	800	2420.5580	 0.0007	 0.0036	 0.8203	 1.5370	 1.9044	 9.6744
302	15	2	2	5	313.6095	56	1	800	2420.5580	 0.0007	 1.9203	 2.7369	 3.4537	 3.7684	 9.6744
302	15	3	2	5	287.5521	56	1	800	2420.5580	 0.0007	 3.7869	 4.6037	 5.3203	 5.6089	 9.6744
302	15	4	2	5	365.4286	29	1	800	2420.5580	 0.0007	 5.6203	 6.4370	 7.1537	 7.5200	 9.6744
302	15	5	2	5	584.7121	29	0	800	2420.5580	 0.0007	 7.5369	 8.3537	 9.0704	 9.6562	 9.6744
302	15	6	2	5	324.0504	56	1	800	2420.5580	 0.0007	 0.0130	 0.8296	 1.5463	 1.8718	 9.6744
302	15	7	2	5	545.4420	29	1	800	2420.5580	 0.0007	 1.8795	 2.6963	 3.4129	 3.9594	 9.6744
302	15	8	2	5	254.2618	56	1	800	2420.5580	 0.0007	 3.9795	 4.7963	 5.5129	 5.7690	 9.6744
302	15	9	2	5	333.7227	56	1	800	2420.5580	 0.0007	 5.7796	 6.5963	 7.3130	 7.6477	 9.6744
302	15	10	2	5	290.3762	56	1	800	2420.5580	 0.0007	 7.6629	 8.4795	 9.1963	 9.4877	 9.6744
302	15	11	2	5	385.4786	56	1	800	2420.5580	 0.0007	 9.4962	10.3129	11.0296	11.4160	 9.6744
302	15	12	2	5	387.7799	29	1	800	2420.5580	 0.0007	11.4295	12.2462	12.9635	13.3522	 9.6744
302	15	1	3	5	458.9064	29	1	800	2420.5580	 0.0007	 0.0149	 0.8316	 1.5483	 2.0082	13.3548
302	15	2	3	5	298.7247	56	1	800	2420.5580	 0.0007	 2.0149	 2.8316	 3.5483	 3.8480	13.3548
302	15	3	3	5	336.1477	56	1	800	2420.5580	 0.0007	 3.8649	 4.6816	 5.3983	 5.7356	13.3548
302	15	4	3	5	341.6013	56	1	800	2420.5580	 0.0007	 5.7483	 6.5649	 7.2816	 7.6241	13.3548
302	15	5	3	5	329.9136	56	1	800	2420.5580	 0.0007	 7.6316	 8.4483	 9.1649	 9.4958	13.3548
302	15	6	3	5	438.9718	29	1	800	2420.5580	 0.0007	 9.5149	10.3316	11.0483	11.4882	13.3548
302	15	7	3	5	422.8590	29	1	800	2420.5580	 0.0007	11.4982	12.3150	13.0316	13.4554	13.3548
302	15	8	3	5	624.2479	29	1	800	2420.5580	 0.0007	13.4649	14.2817	14.9983	15.6237	13.3548
302	15	9	3	5	449.4945	29	1	800	2420.5580	 0.0007	15.6316	16.4482	17.1650	17.6157	13.3548
302	15	10	3	5	385.8985	29	1	800	2420.5580	 0.0007	17.6316	18.4483	19.1649	19.5519	13.3548
302	15	11	3	5	452.1410	29	1	800	2420.5580	 0.0007	19.5649	20.3816	21.0983	21.5515	13.3548
302	15	12	3	5	332.1239	56	1	800	2420.5580	 0.0007	21.5650	22.3817	23.0983	23.4314	13.3548
302	16	1	1	6	458.2301	56	1	800	2528.8246	 0.0007	 0.0071	 0.8238	 1.5405	 1.9997	0
302	16	2	1	6	322.0858	56	1	800	2528.8246	 0.0007	 2.0070	 2.8239	 3.5405	 3.8636	0
302	16	3	1	6	328.4368	56	1	800	2528.8246	 0.0007	 3.8737	 4.6904	 5.4071	 5.7365	0
302	16	4	1	6	348.2261	29	1	800	2528.8246	 0.0007	 5.7571	 6.5738	 7.2905	 7.6398	0
302	16	5	1	6	424.6720	56	1	800	2528.8246	 0.0007	 7.6570	 8.4738	 9.1904	 9.6161	0
302	16	6	1	6	338.3134	56	1	800	2528.8246	 0.0007	 9.6237	10.4404	11.1571	11.4965	0
302	16	7	1	6	318.5169	56	1	800	2528.8246	 0.0007	11.5070	12.3238	13.0404	13.3600	0
302	16	8	1	6	363.5152	29	1	800	2528.8246	 0.0007	13.3738	14.1905	14.9071	15.2720	0
302	16	9	1	6	431.5306	29	1	800	2528.8246	 0.0007	15.2904	16.1071	16.8239	17.2563	0
302	16	10	1	6	480.3363	29	1	800	2528.8246	 0.0007	17.2737	18.0904	18.8071	19.2885	0
302	16	11	1	6	415.0052	29	0	800	2528.8246	 0.0007	19.3070	20.1238	20.8404	21.2564	0
302	16	12	1	6	330.0626	56	1	800	2528.8246	 0.0007	 0.0148	 0.8316	 1.5482	 1.8792	0
302	16	13	1	6	390.8645	29	1	800	2528.8246	 0.0007	 1.8981	 2.7149	 3.4314	 3.8234	0
302	16	14	1	6	426.2363	56	1	800	2528.8246	 0.0007	 3.8315	 4.6482	 5.3649	 5.7921	0
302	16	15	1	6	403.0666	29	1	800	2528.8246	 0.0007	 5.7981	 6.6149	 7.3315	 7.7357	0
302	16	16	1	6	324.8743	29	0	800	2528.8246	 0.0007	 7.7481	 8.5648	 9.2815	 9.6075	0
302	16	17	1	6	628.2029	29	1	800	2528.8246	 0.0007	 0.0132	 0.8299	 1.5466	 2.1759	0
302	16	18	1	6	413.0507	29	1	800	2528.8246	 0.0007	 2.1966	 3.0133	 3.7299	 4.1440	0
302	16	19	1	6	502.9032	29	1	800	2528.8246	 0.0007	 4.1632	 4.9799	 5.6965	 6.2005	0
302	16	20	1	6	356.5957	29	1	800	2528.8246	 0.0007	 6.2132	 7.0300	 7.7466	 8.1042	0
302	16	21	1	6	368.9687	29	0	800	2528.8246	 0.0007	 8.1132	 8.9299	 9.6467	10.0167	0
302	16	22	1	6	414.3964	29	1	800	2528.8246	 0.0007	 0.0197	 0.8364	 1.5530	 1.9685	0
302	16	23	1	6	550.9034	56	1	800	2528.8246	 0.0007	 1.9864	 2.8031	 3.5198	 4.0718	0
302	16	24	1	6	531.5985	29	1	800	2528.8246	 0.0007	 4.0864	 4.9031	 5.6198	 6.1524	0
302	16	25	1	6	679.4997	29	1	800	2528.8246	 0.0007	 6.1697	 6.9864	 7.7032	 8.3837	0
302	16	26	1	6	366.1925	56	1	800	2528.8246	 0.0007	 8.4030	 9.2198	 9.9365	10.3037	0
302	16	27	1	6	458.1889	29	1	800	2528.8246	 0.0007	10.3197	11.1364	11.8531	12.3122	0
302	16	28	1	6	321.4322	56	1	800	2528.8246	 0.0007	12.3197	13.1364	13.8531	14.1756	0
302	16	29	1	6	327.5065	56	1	800	2528.8246	 0.0007	14.1864	15.0031	15.7197	16.0482	0
302	16	30	1	6	355.3845	29	1	800	2528.8246	 0.0007	16.0697	16.8864	17.6031	17.9595	0
302	17	1	1	6	416.1472	29	1	800	2599.9246	 0.0007	 0.0089	 0.8257	 1.5424	 1.9596	0
302	17	2	1	6	401.6062	29	1	800	2599.9246	 0.0007	 1.9756	 2.7923	 3.5090	 3.9116	0
302	17	3	1	6	340.0860	56	1	800	2599.9246	 0.0007	 3.9256	 4.7423	 5.4590	 5.8001	0
302	17	4	1	6	336.5097	29	1	800	2599.9246	 0.0007	 5.8089	 6.6257	 7.3424	 7.6799	0
302	17	5	1	6	324.6816	56	1	800	2599.9246	 0.0007	 7.6923	 8.5090	 9.2257	 9.5514	0
302	17	6	1	6	402.8611	56	1	800	2599.9246	 0.0007	 9.5589	10.3757	11.0924	11.4962	0
302	17	7	1	6	436.8805	29	1	800	2599.9246	 0.0007	11.5089	12.3256	13.0423	13.4801	0
302	17	8	1	6	293.1362	56	1	800	2599.9246	 0.0007	13.4923	14.3090	15.0257	15.3199	0
302	17	9	1	6	332.1951	56	1	800	2599.9246	 0.0007	15.3256	16.1424	16.8590	17.1923	0
302	17	10	1	6	337.0032	29	0	800	2599.9246	 0.0007	17.2089	18.0256	18.7423	19.0804	0
302	17	11	1	6	384.6677	29	1	800	2599.9246	 0.0007	 0.0087	 0.8254	 1.5422	 1.9278	0
302	17	12	1	6	386.7729	29	1	800	2599.9246	 0.0007	 1.9420	 2.7588	 3.4754	 3.8633	0
302	17	1	2	6	285.2625	56	1	800	2599.9246	 0.0007	 0.0127	 0.8295	 1.5461	 1.8324	 3.8659
302	17	2	2	6	347.9187	56	1	800	2599.9246	 0.0007	 1.8460	 2.6628	 3.3794	 3.7284	 3.8659
302	17	3	2	6	399.5558	29	1	800	2599.9246	 0.0007	 3.7460	 4.5627	 5.2795	 5.6802	 3.8659
302	17	4	2	6	497.4895	29	1	800	2599.9246	 0.0007	 5.6960	 6.5127	 7.2295	 7.7280	 3.8659
302	17	5	2	6	408.3360	29	1	800	2599.9246	 0.0007	 7.7460	 8.5628	 9.2794	 9.6887	 3.8659
302	17	6	2	6	521.4458	29	1	800	2599.9246	 0.0007	 9.6960	10.5127	11.2295	11.7521	 3.8659
302	17	7	2	6	487.6397	29	1	800	2599.9246	 0.0007	11.7627	12.5795	13.2961	13.7848	 3.8659
302	17	8	2	6	541.8502	29	1	800	2599.9246	 0.0007	13.7960	14.6128	15.3295	15.8724	 3.8659
302	17	9	2	6	338.2380	56	1	800	2599.9246	 0.0007	15.8794	16.6961	17.4128	17.7521	 3.8659
302	17	10	2	6	566.9109	56	0	800	2599.9246	 0.0007	17.7627	18.5795	19.2961	19.8641	 3.8659
302	17	11	2	6	424.7696	29	1	800	2599.9246	 0.0007	 0.0166	 0.8334	 1.5501	 1.9759	 3.8659
302	17	12	2	6	386.1575	29	1	800	2599.9246	 0.0007	 1.9833	 2.8001	 3.5167	 3.9038	 3.8659
302	17	1	3	6	366.1610	29	1	800	2599.9246	 0.0007	 0.0189	 0.8356	 1.5523	 1.9195	 3.9065
302	17	2	3	6	305.7399	56	1	800	2599.9246	 0.0007	 1.9356	 2.7523	 3.4690	 3.7758	 3.9065
302	17	3	3	6	423.5504	29	1	800	2599.9246	 0.0007	 3.7855	 4.6023	 5.3190	 5.7436	 3.9065
302	17	4	3	6	641.5238	29	1	800	2599.9246	 0.0007	 5.7523	 6.5689	 7.2856	 7.9281	 3.9065
302	17	5	3	6	425.5966	29	1	800	2599.9246	 0.0007	 7.9355	 8.7523	 9.4690	 9.8956	 3.9065
302	17	6	3	6	322.8250	56	1	800	2599.9246	 0.0007	 9.9022	10.7189	11.4356	11.7595	 3.9065
302	17	7	3	6	288.6281	56	1	800	2599.9246	 0.0007	11.7689	12.5856	13.3023	13.5920	 3.9065
302	17	8	3	6	279.3957	56	1	800	2599.9246	 0.0007	13.6022	14.4190	15.1356	15.4160	 3.9065
302	17	9	3	6	293.9167	56	1	800	2599.9246	 0.0007	15.4356	16.2523	16.9689	17.2639	 3.9065
302	17	10	3	6	379.4386	56	1	800	2599.9246	 0.0007	17.2856	18.1023	18.8190	19.1994	 3.9065
302	17	11	3	6	574.9340	29	1	800	2599.9246	 0.0007	19.2189	20.0356	20.7523	21.3282	 3.9065
302	17	12	3	6	265.7124	56	1	800	2599.9246	 0.0007	21.3356	22.1522	22.8690	23.1358	 3.9065
302	18	1	1	6	306.4388	56	1	800	2718.9246	 0.0007	 0.0149	 0.8315	 1.5483	 1.8559	0
302	18	2	1	6	288.1233	56	1	800	2718.9246	 0.0007	 1.8649	 2.6816	 3.3983	 3.6875	0
302	18	3	1	6	327.6269	29	1	800	2718.9246	 0.0007	 3.6982	 4.5149	 5.2317	 5.5603	0
302	18	4	1	6	291.3694	56	1	800	2718.9246	 0.0007	 5.5815	 6.3983	 7.1149	 7.4074	0
302	18	5	1	6	355.0814	29	1	800	2718.9246	 0.0007	 7.4149	 8.2316	 8.9482	 9.3044	0
302	18	6	1	6	374.8700	29	1	800	2718.9246	 0.0007	 9.3149	10.1316	10.8482	11.2242	0
302	18	7	1	6	385.8131	29	1	800	2718.9246	 0.0007	11.2315	12.0483	12.7649	13.1517	0
302	18	8	1	6	323.8890	29	1	800	2718.9246	 0.0007	13.1649	13.9817	14.6982	15.0237	0
302	18	9	1	6	481.4018	29	1	800	2718.9246	 0.0007	15.0316	15.8483	16.5650	17.0474	0
302	18	10	1	6	392.7912	56	1	800	2718.9246	 0.0007	17.0649	17.8817	18.5982	18.9920	0
302	18	11	1	6	290.6779	56	1	800	2718.9246	 0.0007	18.9982	19.8149	20.5316	20.8233	0
302	18	12	1	6	369.4995	29	1	800	2718.9246	 0.0007	20.8315	21.6482	22.3650	22.7355	0
302	18	13	1	6	365.5988	56	1	800	2718.9246	 0.0007	22.7482	23.5649	24.2816	24.6483	0
302	18	14	1	6	280.9680	56	1	800	2718.9246	 0.0007	24.6649	25.4817	26.1983	26.4805	0
302	18	15	1	6	343.4926	29	1	800	2718.9246	 0.0007	26.4982	27.3149	28.0317	28.3761	0
302	18	16	1	6	443.5029	29	1	800	2718.9246	 0.0007	28.3982	29.2150	29.9315	30.3759	0
302	18	17	1	6	443.0933	56	1	800	2718.9246	 0.0007	30.3982	31.2149	31.9316	32.3757	0
302	18	18	1	6	299.5913	56	1	800	2718.9246	 0.0007	32.3982	33.2149	33.9316	34.2322	0
302	18	19	1	6	441.5161	29	0	800	2718.9246	 0.0007	34.2483	35.0649	35.7816	36.2242	0
302	18	20	1	6	423.2686	29	1	800	2718.9246	 0.0007	 0.0109	 0.8277	 1.5442	 1.9686	0
302	18	21	1	6	328.0811	56	1	800	2718.9246	 0.0007	 1.9776	 2.7943	 3.5110	 3.8401	0
302	18	22	1	6	389.1241	29	1	800	2718.9246	 0.0007	 3.8609	 4.6776	 5.3942	 5.7844	0
302	18	23	1	6	407.8804	29	1	800	2718.9246	 0.0007	 5.7942	 6.6110	 7.3276	 7.7366	0
302	18	24	1	6	297.5504	56	1	800	2718.9246	 0.0007	 7.7442	 8.5610	 9.2776	 9.5761	0
302	18	25	1	6	343.3894	56	1	800	2718.9246	 0.0007	 9.5942	10.4110	11.1276	11.4721	0
302	18	26	1	6	468.5591	29	1	800	2718.9246	 0.0007	11.4776	12.2942	13.0110	13.4805	0
302	18	27	1	6	411.8052	29	1	800	2718.9246	 0.0007	13.4942	14.3110	15.0276	15.4405	0
302	18	28	1	6	516.8839	56	1	800	2718.9246	 0.0007	15.4609	16.2776	16.9943	17.5122	0
302	18	29	1	6	314.3314	56	1	800	2718.9246	 0.0007	17.5276	18.3442	19.0610	19.3764	0
302	18	30	1	6	312.2791	56	1	800	2718.9246	 0.0007	19.3942	20.2109	20.9276	21.2409	0
302	19	1	1	7	321.9232	56	1	800	2797.0413	 0.0007	 0.0078	 0.8245	 1.5411	 1.8641	0
302	19	2	1	7	326.8358	29	1	800	2797.0413	 0.0007	 1.8744	 2.6911	 3.4078	 3.7356	0
302	19	3	1	7	699.6157	1	0	800	2797.0413	 0.0007	 3.7578	 4.5744	 5.2911	 5.9915	0
302	19	4	1	7	492.1688	29	1	800	2797.0413	 0.0007	 0.0135	 0.8302	 1.5468	 2.0404	0
302	19	5	1	7	274.1927	56	1	800	2797.0413	 0.0007	 2.0468	 2.8635	 3.5803	 3.8555	0
302	19	6	1	7	321.9075	56	1	800	2797.0413	 0.0007	 3.8635	 4.6803	 5.3969	 5.7198	0
302	19	7	1	7	304.0319	56	1	800	2797.0413	 0.0007	 5.7301	 6.5469	 7.2636	 7.5687	0
302	19	8	1	7	349.0546	29	1	800	2797.0413	 0.0007	 7.5801	 8.3969	 9.1135	 9.4636	0
302	19	9	1	7	521.3426	56	1	800	2797.0413	 0.0007	 9.4801	10.2968	11.0136	11.5359	0
302	19	10	1	7	374.4268	56	1	800	2797.0413	 0.0007	11.5468	12.3636	13.0803	13.4558	0
302	19	11	1	7	321.4682	56	1	800	2797.0413	 0.0007	13.4635	14.2802	14.9969	15.3194	0
302	19	12	1	7	470.9549	29	1	800	2797.0413	 0.0007	15.3301	16.1468	16.8635	17.3355	0
302	19	1	2	7	312.2281	56	1	800	2797.0413	 0.0007	 0.0179	 0.8346	 1.5513	 1.8645	17.3382
302	19	2	2	7	381.0477	29	1	800	2797.0413	 0.0007	 1.8845	 2.7013	 3.4180	 3.8000	17.3382
302	19	3	2	7	503.7402	56	1	800	2797.0413	 0.0007	 3.8179	 4.6346	 5.3514	 5.8562	17.3382
302	19	4	2	7	317.5214	56	1	800	2797.0413	 0.0007	 5.8679	 6.6847	 7.4013	 7.7199	17.3382
302	19	5	2	7	339.5078	56	1	800	2797.0413	 0.0007	 7.7345	 8.5512	 9.2680	 9.6084	17.3382
302	19	6	2	7	328.1326	29	1	800	2797.0413	 0.0007	 9.6179	10.4346	11.1512	11.4803	17.3382
302	19	7	2	7	636.0902	29	1	800	2797.0413	 0.0007	11.5012	12.3179	13.0347	13.6718	17.3382
302	19	8	2	7	341.4276	56	1	800	2797.0413	 0.0007	13.6845	14.5013	15.2180	15.5603	17.3382
302	19	9	2	7	409.9971	29	1	800	2797.0413	 0.0007	15.5679	16.3846	17.1012	17.5123	17.3382
302	19	10	2	7	355.4175	29	1	800	2797.0413	 0.0007	17.5179	18.3346	19.0513	19.4078	17.3382
302	19	11	2	7	352.1118	56	1	800	2797.0413	 0.0007	19.4179	20.2346	20.9513	21.3043	17.3382
302	19	12	2	7	299.2811	56	1	800	2797.0413	 0.0007	21.3179	22.1347	22.8513	23.1527	17.3382
302	20	1	1	7	392.7892	56	1	800	2861.0080	 0.0009	 0.0160	 0.8327	 1.5494	 1.9432	0
302	20	2	1	7	323.9224	56	1	800	2861.0080	 0.0009	 1.9493	 2.7660	 3.4827	 3.8076	0
302	20	3	1	7	385.0557	29	1	800	2861.0080	 0.0009	 3.8160	 4.6327	 5.3494	 5.7357	0
302	20	4	1	7	379.3229	29	1	800	2861.0080	 0.0009	 5.7493	 6.5661	 7.2827	 7.6632	0
302	20	5	1	7	375.1099	29	1	800	2861.0080	 0.0009	 7.6826	 8.4994	 9.2160	 9.5921	0
302	20	6	1	7	369.6152	56	1	800	2861.0080	 0.0009	 9.5993	10.4160	11.1328	11.5034	0
302	20	7	1	7	389.2688	29	1	800	2861.0080	 0.0009	11.5160	12.3327	13.0494	13.4397	0
302	20	8	1	7	423.3887	56	1	800	2861.0080	 0.0009	13.4493	14.2660	14.9828	15.4071	0
302	20	9	1	7	497.2214	29	1	800	2861.0080	 0.0009	15.4160	16.2326	16.9494	17.4477	0
302	20	10	1	7	343.6999	56	1	800	2861.0080	 0.0009	17.4660	18.2828	18.9993	19.3441	0
302	20	11	1	7	347.4895	56	1	800	2861.0080	 0.0009	19.3493	20.1661	20.8827	21.2312	0
302	20	12	1	7	472.3243	29	1	800	2861.0080	 0.0009	21.2493	22.0660	22.7827	23.2561	0
302	20	13	1	7	399.2537	29	1	800	2861.0080	 0.0009	23.2660	24.0827	24.7994	25.1997	0
302	20	14	1	7	385.4696	29	1	800	2861.0080	 0.0009	25.2160	26.0327	26.7494	27.1358	0
302	20	15	1	7	331.6285	56	1	800	2861.0080	 0.0009	27.1493	27.9661	28.6827	29.0154	0
302	20	16	1	7	432.0793	29	1	800	2861.0080	 0.0009	29.0327	29.8494	30.5661	30.9992	0
302	20	17	1	7	385.0142	56	1	800	2861.0080	 0.0009	31.0160	31.8328	32.5494	32.9355	0
302	20	18	1	7	443.5245	56	1	800	2861.0080	 0.0009	32.9493	33.7660	34.4827	34.9272	0
302	20	19	1	7	316.0831	56	1	800	2861.0080	 0.0009	34.9493	35.7661	36.4826	36.7997	0
302	20	20	1	7	321.5256	29	1	800	2861.0080	 0.0009	36.8160	37.6327	38.3494	38.6719	0
302	20	21	1	7	462.0871	29	1	800	2861.0080	 0.0009	38.6826	39.4994	40.2161	40.6792	0
302	20	22	1	7	381.8601	29	1	800	2861.0080	 0.0009	40.6993	41.5161	42.2327	42.6156	0
302	20	23	1	7	288.7444	56	1	800	2861.0080	 0.0009	42.6326	43.4494	44.1660	44.4557	0
302	20	24	1	7	294.8131	56	1	800	2861.0080	 0.0009	44.4660	45.2827	45.9994	46.2952	0
302	20	25	1	7	381.5950	56	1	800	2861.0080	 0.0009	46.3160	47.1328	47.8494	48.2320	0
302	20	26	1	7	408.1627	56	1	800	2861.0080	 0.0009	48.2493	49.0661	49.7828	50.1919	0
302	20	27	1	7	298.1525	56	1	800	2861.0080	 0.0009	50.1993	51.0161	51.7328	52.0320	0
302	20	28	1	7	415.4457	29	1	800	2861.0080	 0.0009	52.0493	52.8659	53.5827	53.9991	0
302	20	29	1	7	296.7324	56	1	800	2861.0080	 0.0009	54.0160	54.8327	55.5494	55.8472	0
302	20	30	1	7	303.5069	56	1	800	2861.0080	 0.0009	55.8660	56.6827	57.3994	57.7038	0
302	21	1	1	7	398.1402	56	1	800	2933.1079	 0.0007	 0.0031	 0.8199	 1.5365	 1.9357	0
302	21	2	1	7	384.9295	29	1	800	2933.1079	 0.0007	 1.9531	 2.7698	 3.4865	 3.8723	0
302	21	3	1	7	411.4750	29	1	800	2933.1079	 0.0007	 3.8864	 4.7032	 5.4198	 5.8322	0
302	21	4	1	7	428.3044	56	1	800	2933.1079	 0.0007	 5.8531	 6.6698	 7.3865	 7.8159	0
302	21	5	1	7	349.5192	56	1	800	2933.1079	 0.0007	 7.8364	 8.6531	 9.3698	 9.7202	0
302	21	6	1	7	699.8536	1	0	800	2933.1079	 0.0007	 9.7364	10.5531	11.2698	11.9704	0
302	21	7	1	7	301.4703	56	1	800	2933.1079	 0.0007	 0.0115	 0.8282	 1.5448	 1.8473	0
302	21	8	1	7	379.9464	29	1	800	2933.1079	 0.0007	 1.8614	 2.6782	 3.3948	 3.7758	0
302	21	9	1	7	334.9007	56	1	800	2933.1079	 0.0007	 3.7948	 4.6115	 5.3282	 5.6641	0
302	21	10	1	7	370.4843	29	1	800	2933.1079	 0.0007	 5.6781	 6.4949	 7.2116	 7.5838	0
302	21	11	1	7	518.0777	29	1	800	2933.1079	 0.0007	 7.5957	 8.4115	 9.1282	 9.6473	0
302	21	12	1	7	420.1344	29	1	800	2933.1079	 0.0007	 9.6615	10.4782	11.1948	11.6159	0
302	21	1	2	7	305.5225	56	1	800	2933.1079	 0.0007	 0.0156	 0.8323	 1.5490	 1.8556	11.6187
302	21	2	2	7	279.9759	56	1	800	2933.1079	 0.0007	 1.8656	 2.6823	 3.3988	 3.6799	11.6187
302	21	3	2	7	398.9653	56	1	800	2933.1079	 0.0007	 3.6989	 4.5156	 5.2322	 5.6322	11.6187
302	21	4	2	7	360.4332	56	1	800	2933.1079	 0.0007	 5.6489	 6.4657	 7.1823	 7.5437	11.6187
302	21	5	2	7	387.4878	29	1	800	2933.1079	 0.0007	 7.5655	 8.3823	 9.0990	 9.4876	11.6187
302	21	6	2	7	326.7553	56	1	800	2933.1079	 0.0007	 9.4989	10.3156	11.0322	11.3600	11.6187
302	21	7	2	7	524.1779	29	1	800	2933.1079	 0.0007	11.3655	12.1823	12.8989	13.4241	11.6187
302	21	8	2	7	528.6326	29	1	800	2933.1079	 0.0007	13.4322	14.2490	14.9656	15.4954	11.6187
302	21	9	2	7	542.3187	29	1	800	2933.1079	 0.0007	15.5155	16.3322	17.0489	17.5921	11.6187
302	21	10	2	7	394.4596	56	0	800	2933.1079	 0.0007	17.5989	18.4156	19.1323	19.5279	11.6187
302	21	11	2	7	342.2485	29	1	800	2933.1079	 0.0007	 0.0198	 0.8365	 1.5532	 1.8964	11.6187
302	21	12	2	7	682.8828	56	0	800	2933.1079	 0.0007	 1.9031	 2.7198	 3.4365	 4.1202	11.6187
302	21	1	3	7	343.8038	56	1	800	2933.1079	 0.0007	 0.0100	 0.8268	 1.5433	 1.8882	 0.0028
302	21	2	3	7	283.9102	56	1	800	2933.1079	 0.0007	 1.9101	 2.7268	 3.4434	 3.7283	 0.0028
302	21	3	3	7	370.0676	56	1	800	2933.1079	 0.0007	 3.7434	 4.5601	 5.2768	 5.6480	 0.0028
302	21	4	3	7	325.8790	29	1	800	2933.1079	 0.0007	 5.6600	 6.4767	 7.1934	 7.5203	 0.0028
302	21	5	3	7	323.1365	56	1	800	2933.1079	 0.0007	 7.5267	 8.3434	 9.0601	 9.3843	 0.0028
302	21	6	3	7	456.5261	29	1	800	2933.1079	 0.0007	 9.3933	10.2100	10.9267	11.3844	 0.0028
302	21	7	3	7	520.1657	56	0	800	2933.1079	 0.0007	11.3933	12.2100	12.9267	13.4481	 0.0028
302	21	8	3	7	694.1968	29	1	800	2933.1079	 0.0007	 0.0190	 0.8358	 1.5524	 2.2476	 0.0028
302	21	9	3	7	404.1859	29	1	800	2933.1079	 0.0007	 2.2690	 3.0857	 3.8024	 4.2078	 0.0028
302	21	10	3	7	590.1754	29	1	800	2933.1079	 0.0007	 4.2190	 5.0358	 5.7524	 6.3436	 0.0028
302	21	11	3	7	473.0065	29	1	800	2933.1079	 0.0007	 6.3524	 7.1691	 7.8858	 8.3598	 0.0028
302	21	12	3	7	424.1030	56	1	800	2933.1079	 0.0007	 8.3690	 9.1857	 9.9024	10.3276	 0.0028
302	21	1	4	7	312.1264	56	1	800	2933.1079	 0.0007	 0.0182	 0.8349	 1.5516	 1.8647	10.3303
302	21	2	4	7	405.4120	29	1	800	2933.1079	 0.0007	 1.8849	 2.7016	 3.4182	 3.8246	10.3303
302	21	3	4	7	320.1000	56	1	800	2933.1079	 0.0007	 3.8349	 4.6516	 5.3682	 5.6896	10.3303
302	21	4	4	7	388.0857	29	1	800	2933.1079	 0.0007	 5.7016	 6.5183	 7.2350	 7.6240	10.3303
302	21	5	4	7	534.7679	56	0	800	2933.1079	 0.0007	 7.6349	 8.4516	 9.1683	 9.7041	10.3303
302	21	6	4	7	402.7495	56	0	800	2933.1079	 0.0007	 0.0148	 0.8315	 1.5483	 1.9522	10.3303
302	21	7	4	7	418.1544	29	1	800	2933.1079	 0.0007	 0.0076	 0.8243	 1.5410	 1.9602	10.3303
302	21	8	4	7	498.9878	29	1	800	2933.1079	 0.0007	 1.9742	 2.7909	 3.5076	 4.0082	10.3303
302	21	9	4	7	384.9910	29	1	800	2933.1079	 0.0007	 4.0243	 4.8410	 5.5576	 5.9437	10.3303
302	21	10	4	7	347.7491	56	1	800	2933.1079	 0.0007	 5.9576	 6.7742	 7.4910	 7.8397	10.3303
302	21	11	4	7	416.2872	29	1	800	2933.1079	 0.0007	 7.8576	 8.6743	 9.3909	 9.8081	10.3303
302	21	12	4	7	392.7080	56	1	800	2933.1079	 0.0007	 9.8242	10.6410	11.3576	11.7513	10.3303
302	21	1	5	7	376.9331	29	1	800	2933.1079	 0.0007	 0.0093	 0.8260	 1.5427	 1.9206	11.7540
302	21	2	5	7	506.8907	29	1	800	2933.1079	 0.0007	 1.9426	 2.7594	 3.4760	 3.9839	11.7540
302	21	3	5	7	392.8851	29	1	800	2933.1079	 0.0007	 3.9926	 4.8093	 5.5260	 5.9200	11.7540
302	21	4	5	7	379.3372	56	1	800	2933.1079	 0.0007	 5.9259	 6.7427	 7.4594	 7.8397	11.7540
302	21	5	5	7	358.9511	29	1	800	2933.1079	 0.0007	 7.8593	 8.6760	 9.3927	 9.7526	11.7540
302	21	6	5	7	298.4757	56	1	800	2933.1079	 0.0007	 9.7593	10.5760	11.2927	11.5927	11.7540
302	21	7	5	7	280.9650	56	1	800	2933.1079	 0.0007	11.6093	12.4260	13.1427	13.4250	11.7540
302	21	8	5	7	367.6934	29	1	800	2933.1079	 0.0007	13.4426	14.2594	14.9760	15.3446	11.7540
302	21	9	5	7	298.5102	56	1	800	2933.1079	 0.0007	15.3593	16.1760	16.8926	17.1922	11.7540
302	21	10	5	7	368.1076	56	1	800	2933.1079	 0.0007	17.2093	18.0261	18.7426	19.1118	11.7540
302	21	11	5	7	291.8264	56	1	800	2933.1079	 0.0007	19.1260	19.9427	20.6593	20.9523	11.7540
302	21	12	5	7	314.1172	56	1	800	2933.1079	 0.0007	20.9593	21.7760	22.4927	22.8077	11.7540
302	22	1	1	8	400.2400	56	1	800	3105.2580	 0.0009	 0.0089	 0.8255	 1.5422	 1.9435	0
302	22	2	1	8	330.8712	56	1	800	3105.2580	 0.0009	 1.9588	 2.7756	 3.4923	 3.8241	0
302	22	3	1	8	374.7922	56	1	800	3105.2580	 0.0009	 3.8422	 4.6589	 5.3756	 5.7515	0
302	22	4	1	8	338.8221	56	1	800	3105.2580	 0.0009	 5.7588	 6.5755	 7.2922	 7.6320	0
302	22	5	1	8	422.7526	56	1	800	3105.2580	 0.0009	 7.6422	 8.4589	 9.1755	 9.5992	0
302	22	6	1	8	416.1527	29	1	800	3105.2580	 0.0009	 9.6088	10.4256	11.1422	11.5594	0
302	22	7	1	8	361.6870	29	1	800	3105.2580	 0.0009	11.5755	12.3922	13.1089	13.4717	0
302	22	8	1	8	348.7853	56	1	800	3105.2580	 0.0009	13.4922	14.3089	15.0256	15.3756	0
302	22	9	1	8	393.5399	29	1	800	3105.2580	 0.0009	15.3922	16.2089	16.9256	17.3201	0
302	22	10	1	8	347.8185	56	1	800	3105.2580	 0.0009	17.3255	18.1423	18.8589	19.2078	0
302	22	11	1	8	311.9324	56	1	800	3105.2580	 0.0009	19.2255	20.0423	20.7589	21.0718	0
302	22	12	1	8	404.9293	29	1	800	3105.2580	 0.0009	21.0922	21.9090	22.6255	23.0316	0
302	22	13	1	8	414.9188	29	1	800	3105.2580	 0.0009	23.0422	23.8589	24.5755	24.9914	0
302	22	14	1	8	464.8780	29	1	800	3105.2580	 0.0009	25.0088	25.8256	26.5423	27.0081	0
302	22	15	1	8	327.8632	56	1	800	3105.2580	 0.0009	27.0255	27.8423	28.5588	28.8878	0
302	22	16	1	8	325.0078	56	1	800	3105.2580	 0.0009	28.9088	29.7257	30.4422	30.7682	0
302	22	17	1	8	281.5413	56	1	800	3105.2580	 0.0009	30.7755	31.5923	32.3089	32.5915	0
302	22	18	1	8	312.5765	56	1	800	3105.2580	 0.0009	32.6088	33.4256	34.1422	34.4559	0
302	22	19	1	8	389.6981	29	1	800	3105.2580	 0.0009	34.4755	35.2923	36.0088	36.3996	0
302	22	20	1	8	489.2606	29	1	800	3105.2580	 0.0009	36.4088	37.2256	37.9422	38.4332	0
302	22	21	1	8	462.7663	56	1	800	3105.2580	 0.0009	38.4429	39.2589	39.9755	40.4393	0
302	22	22	1	8	542.2261	29	1	800	3105.2580	 0.0009	40.4588	41.2756	41.9923	42.5357	0
302	22	23	1	8	450.6919	56	1	800	3105.2580	 0.0009	42.5422	43.3589	44.0756	44.5273	0
302	22	24	1	8	434.7562	29	1	800	3105.2580	 0.0009	44.5422	45.3589	46.0756	46.5114	0
302	22	25	1	8	347.8196	56	1	800	3105.2580	 0.0009	46.5255	47.3422	48.0589	48.4078	0
302	22	26	1	8	375.8507	29	1	800	3105.2580	 0.0009	48.4255	49.2423	49.9589	50.3358	0
302	22	27	1	8	338.8509	56	1	800	3105.2580	 0.0009	50.3422	51.1589	51.8756	52.2155	0
302	22	28	1	8	367.3622	56	1	800	3105.2580	 0.0009	52.2255	53.0422	53.7589	54.1273	0
302	22	29	1	8	331.5603	56	1	800	3105.2580	 0.0009	54.1422	54.9589	55.6756	56.0081	0
302	22	30	1	8	304.3293	56	1	800	3105.2580	 0.0009	56.0255	56.8422	57.5589	57.8642	0
302	23	1	1	8	449.1298	29	1	800	3180.9913	 0.0007	 0.0160	 0.8328	 1.5495	 1.9998	0
302	23	2	1	8	401.8772	29	1	800	3180.9913	 0.0007	 2.0160	 2.8327	 3.5494	 3.9524	0
302	23	3	1	8	395.4445	29	1	800	3180.9913	 0.0007	 3.9660	 4.7828	 5.4994	 5.8959	0
302	23	4	1	8	542.3521	29	1	800	3180.9913	 0.0007	 5.9160	 6.7328	 7.4494	 7.9928	0
302	23	5	1	8	378.4850	29	1	800	3180.9913	 0.0007	 7.9993	 8.8160	 9.5328	 9.9124	0
302	23	6	1	8	445.5124	29	1	800	3180.9913	 0.0007	 9.9327	10.7494	11.4661	11.9125	0
302	23	7	1	8	429.4251	29	1	800	3180.9913	 0.0007	11.9327	12.7494	13.4661	13.8965	0
302	23	8	1	8	326.1382	29	1	800	3180.9913	 0.0007	13.9160	14.7328	15.4495	15.7766	0
302	23	9	1	8	394.5250	29	1	800	3180.9913	 0.0007	15.7827	16.5994	17.3160	17.7122	0
302	23	10	1	8	699.5938	1	0	800	3180.9913	 0.0007	17.7328	18.5493	19.2661	19.9663	0
302	23	11	1	8	385.8788	29	1	800	3180.9913	 0.0007	 0.0079	 0.8246	 1.5414	 1.9283	0
302	23	12	1	8	348.1686	56	1	800	3180.9913	 0.0007	 1.9413	 2.7580	 3.4746	 3.8237	0
302	23	1	2	8	419.0920	29	1	800	3180.9913	 0.0007	 0.0061	 0.8228	 1.5395	 1.9597	 3.8267
302	23	2	2	8	380.2902	29	1	800	3180.9913	 0.0007	 1.9728	 2.7895	 3.5061	 3.8874	 3.8267
302	23	3	2	8	367.4559	29	1	800	3180.9913	 0.0007	 3.9061	 4.7229	 5.4395	 5.8078	 3.8267
302	23	4	2	8	490.5199	29	1	800	3180.9913	 0.0007	 5.8227	 6.6395	 7.3561	 7.8478	 3.8267
302	23	5	2	8	320.8494	29	1	800	3180.9913	 0.0007	 7.8561	 8.6728	 9.3894	 9.7113	 3.8267
302	23	6	2	8	374.2255	29	1	800	3180.9913	 0.0007	 9.7227	10.5395	11.2561	11.6315	 3.8267
302	23	7	2	8	401.3590	29	1	800	3180.9913	 0.0007	11.6394	12.4562	13.1729	13.5752	 3.8267
302	23	8	2	8	363.8196	29	1	800	3180.9913	 0.0007	13.5894	14.4062	15.1227	15.4876	 3.8267
302	23	9	2	8	367.1234	29	1	800	3180.9913	 0.0007	15.5061	16.3228	17.0394	17.4075	 3.8267
302	23	10	2	8	394.1557	56	1	800	3180.9913	 0.0007	17.4228	18.2395	18.9561	19.3513	 3.8267
302	23	11	2	8	356.8090	56	1	800	3180.9913	 0.0007	19.3728	20.1895	20.9061	21.2639	 3.8267
302	23	12	2	8	368.1039	29	1	800	3180.9913	 0.0007	21.2727	22.0895	22.8062	23.1754	 3.8267
302	24	1	1	8	326.8295	56	1	800	3254.2413	 0.0007	 0.0186	 0.8353	 1.5519	 1.8797	0
302	24	2	1	8	308.1317	29	1	800	3254.2413	 0.0007	 1.8852	 2.7019	 3.4186	 3.7276	0
302	24	3	1	8	434.2907	29	1	800	3254.2413	 0.0007	 3.7352	 4.5520	 5.2686	 5.7039	0
302	24	4	1	8	650.1106	56	1	800	3254.2413	 0.0007	 5.7185	 6.5353	 7.2519	 7.9030	0
302	24	5	1	8	634.2244	29	1	800	3254.2413	 0.0007	 7.9186	 8.7352	 9.4519	10.0872	0
302	24	6	1	8	450.6593	29	1	800	3254.2413	 0.0007	10.1019	10.9186	11.6352	12.0877	0
302	24	7	1	8	507.6302	29	1	800	3254.2413	 0.0007	12.1019	12.9186	13.6353	14.1439	0
302	24	8	1	8	400.7572	29	1	800	3254.2413	 0.0007	14.1518	14.9686	15.6853	16.0871	0
302	24	9	1	8	378.6924	29	1	800	3254.2413	 0.0007	16.1018	16.9186	17.6353	18.0151	0
302	24	10	1	8	525.5904	29	1	800	3254.2413	 0.0007	18.0352	18.8520	19.5686	20.0952	0
302	24	11	1	8	307.0740	56	1	800	3254.2413	 0.0007	20.1018	20.9186	21.6352	21.9434	0
302	24	12	1	8	465.4439	29	1	800	3254.2413	 0.0007	21.9518	22.7685	23.4853	23.9516	0
302	24	13	1	8	368.2477	56	1	800	3254.2413	 0.0007	23.9685	24.7853	25.5018	25.8711	0
302	24	14	1	8	363.4026	29	1	800	3254.2413	 0.0007	25.8852	26.7019	27.4186	27.7830	0
302	24	15	1	8	295.1223	56	1	800	3254.2413	 0.0007	27.8019	28.6185	29.3352	29.6314	0
302	24	16	1	8	388.9423	29	1	800	3254.2413	 0.0007	29.6519	30.4685	31.1853	31.5752	0
302	24	17	1	8	399.4557	29	1	800	3254.2413	 0.0007	31.5852	32.4019	33.1186	33.5190	0
302	24	18	1	8	505.5067	29	1	800	3254.2413	 0.0007	33.5352	34.3519	35.0686	35.5751	0
302	24	19	1	8	400.3073	29	0	800	3254.2413	 0.0007	35.5852	36.4019	37.1186	37.5199	0
302	24	20	1	8	372.7299	29	1	800	3254.2413	 0.0007	 0.0122	 0.8289	 1.5456	 1.9195	0
302	24	21	1	8	312.1892	56	1	800	3254.2413	 0.0007	 1.9289	 2.7457	 3.4623	 3.7755	0
302	24	22	1	8	341.5503	56	1	800	3254.2413	 0.0007	 3.7956	 4.6122	 5.3289	 5.6715	0
302	24	23	1	8	362.3510	29	1	800	3254.2413	 0.0007	 5.6789	 6.4956	 7.2123	 7.5757	0
302	24	24	1	8	301.9106	56	1	800	3254.2413	 0.0007	 7.5956	 8.4124	 9.1289	 9.4319	0
302	24	25	1	8	363.6522	29	1	800	3254.2413	 0.0007	 9.4456	10.2623	10.9789	11.3436	0
302	24	26	1	8	606.9262	29	1	800	3254.2413	 0.0007	11.3622	12.1790	12.8956	13.5037	0
302	24	27	1	8	408.6981	29	1	800	3254.2413	 0.0007	13.5122	14.3290	15.0457	15.4556	0
302	24	28	1	8	330.9703	56	1	800	3254.2413	 0.0007	15.4622	16.2789	16.9956	17.3276	0
302	24	29	1	8	360.3133	29	1	800	3254.2413	 0.0007	17.3456	18.1623	18.8789	19.2403	0
302	24	30	1	8	355.1824	56	1	800	3254.2413	 0.0007	19.2622	20.0789	20.7956	21.1519	0
302	25	1	1	9	357.0373	29	1	800	3327.5913	 0.0007	 0.0046	 0.8214	 1.5380	 1.8961	0
302	25	2	1	9	369.1121	29	1	800	3327.5913	 0.0007	 1.9046	 2.7213	 3.4381	 3.8083	0
302	25	3	1	9	292.5485	56	1	800	3327.5913	 0.0007	 3.8213	 4.6380	 5.3547	 5.6484	0
302	25	4	1	9	355.0117	29	0	800	3327.5913	 0.0007	 5.6546	 6.4713	 7.1880	 7.5441	0
302	25	5	1	9	301.4096	56	1	800	3327.5913	 0.0007	 0.0116	 0.8283	 1.5451	 1.8475	0
302	25	6	1	9	291.7306	29	1	800	3327.5913	 0.0007	 1.8616	 2.6784	 3.3951	 3.6878	0
302	25	7	1	9	362.0971	56	1	800	3327.5913	 0.0007	 3.6950	 4.5117	 5.2283	 5.5917	0
302	25	8	1	9	429.4607	56	0	800	3327.5913	 0.0007	 5.6116	 6.4284	 7.1450	 7.5755	0
302	25	9	1	9	354.2805	29	1	800	3327.5913	 0.0007	 0.0159	 0.8327	 1.5493	 1.9045	0
302	25	10	1	9	510.2573	29	1	800	3327.5913	 0.0007	 1.9159	 2.7326	 3.4493	 3.9605	0
302	25	11	1	9	356.0729	29	1	800	3327.5913	 0.0007	 3.9659	 4.7826	 5.4993	 5.8563	0
302	25	12	1	9	327.4457	56	1	800	3327.5913	 0.0007	 5.8659	 6.6826	 7.3993	 7.7278	0
302	25	1	2	9	342.4068	56	1	800	3327.5913	 0.0007	 0.0122	 0.8289	 1.5456	 1.8891	 7.7304
302	25	2	2	9	378.9112	29	1	800	3327.5913	 0.0007	 1.8955	 2.7124	 3.4290	 3.8088	 7.7304
302	25	3	2	9	357.5281	29	1	800	3327.5913	 0.0007	 3.8289	 4.6456	 5.3622	 5.7206	 7.7304
302	25	4	2	9	385.5305	29	1	800	3327.5913	 0.0007	 5.7289	 6.5456	 7.2623	 7.6487	 7.7304
302	25	5	2	9	363.6819	29	1	800	3327.5913	 0.0007	 7.6622	 8.4789	 9.1957	 9.5604	 7.7304
302	25	6	2	9	342.7761	29	1	800	3327.5913	 0.0007	 9.5789	10.3956	11.1122	11.4560	 7.7304
302	25	7	2	9	308.0992	29	1	800	3327.5913	 0.0007	11.4622	12.2790	12.9956	13.3046	 7.7304
302	25	8	2	9	281.4558	56	1	800	3327.5913	 0.0007	13.3122	14.1290	14.8456	15.1280	 7.7304
302	25	9	2	9	376.8654	29	1	800	3327.5913	 0.0007	15.1455	15.9622	16.6789	17.0568	 7.7304
302	25	10	2	9	474.9620	29	1	800	3327.5913	 0.0007	17.0789	17.8956	18.6122	19.0882	 7.7304
302	25	11	2	9	370.8482	56	1	800	3327.5913	 0.0007	19.0955	19.9123	20.6289	21.0007	 7.7304
302	25	12	2	9	302.2142	56	1	800	3327.5913	 0.0007	21.0122	21.8289	22.5456	22.8489	 7.7304
302	26	1	1	9	374.2663	56	1	800	3397.5913	 0.0007	 0.0039	 0.8206	 1.5372	 1.9124	0
302	26	2	1	9	361.2054	29	1	800	3397.5913	 0.0007	 1.9206	 2.7373	 3.4540	 3.8163	0
302	26	3	1	9	380.2854	56	1	800	3397.5913	 0.0007	 3.8373	 4.6540	 5.3707	 5.7520	0
302	26	4	1	9	391.2314	29	1	800	3397.5913	 0.0007	 5.7706	 6.5873	 7.3040	 7.6966	0
302	26	5	1	9	354.2109	29	1	800	3397.5913	 0.0007	 7.7039	 8.5207	 9.2373	 9.5925	0
302	26	6	1	9	421.3682	29	1	800	3397.5913	 0.0007	 9.6039	10.4207	11.1374	11.5597	0
302	26	7	1	9	359.5944	29	1	800	3397.5913	 0.0007	11.5706	12.3872	13.1039	13.4645	0
302	26	8	1	9	331.5435	56	1	800	3397.5913	 0.0007	13.4706	14.2873	15.0039	15.3364	0
302	26	9	1	9	351.4807	56	1	800	3397.5913	 0.0007	15.3539	16.1706	16.8872	17.2397	0
302	26	10	1	9	444.2700	29	1	800	3397.5913	 0.0007	17.2539	18.0706	18.7872	19.2325	0
302	26	11	1	9	355.3685	56	1	800	3397.5913	 0.0007	19.2540	20.0707	20.7874	21.1437	0
302	26	12	1	9	351.6096	29	1	800	3397.5913	 0.0007	21.1539	21.9707	22.6873	23.0399	0
302	26	13	1	9	355.7752	56	1	800	3397.5913	 0.0007	23.0539	23.8706	24.5873	24.9442	0
302	26	14	1	9	391.7561	29	1	800	3397.5913	 0.0007	24.9539	25.7707	26.4873	26.8802	0
302	26	15	1	9	330.2120	56	1	800	3397.5913	 0.0007	26.8872	27.7040	28.4206	28.7518	0
302	26	16	1	9	407.4288	29	1	800	3397.5913	 0.0007	28.7706	29.5873	30.3040	30.7123	0
302	26	17	1	9	393.6906	29	1	800	3397.5913	 0.0007	30.7206	31.5373	32.2540	32.6487	0
302	26	18	1	9	411.5708	29	1	800	3397.5913	 0.0007	32.6706	33.4873	34.2040	34.6165	0
302	26	19	1	9	364.2260	29	1	800	3397.5913	 0.0007	34.6373	35.4539	36.1706	36.5358	0
302	26	20	1	9	463.8517	29	1	800	3397.5913	 0.0007	36.5539	37.3707	38.0873	38.5522	0
302	26	21	1	9	318.7379	56	1	800	3397.5913	 0.0007	38.5706	39.3874	40.1040	40.4237	0
302	26	22	1	9	364.9786	29	1	800	3397.5913	 0.0007	40.4372	41.2540	41.9706	42.3366	0
302	26	23	1	9	303.9477	29	1	800	3397.5913	 0.0007	42.3539	43.1706	43.8873	44.1923	0
302	26	24	1	9	333.4969	56	1	800	3397.5913	 0.0007	44.2039	45.0207	45.7374	46.0719	0
302	26	25	1	9	362.7677	29	1	800	3397.5913	 0.0007	46.0873	46.9039	47.6207	47.9844	0
302	26	26	1	9	325.3314	29	1	800	3397.5913	 0.0007	48.0039	48.8207	49.5373	49.8637	0
302	26	27	1	9	347.1758	29	1	800	3397.5913	 0.0007	49.8706	50.6873	51.4040	51.7523	0
302	26	28	1	9	414.7612	56	1	800	3397.5913	 0.0007	51.7706	52.5873	53.3040	53.7198	0
302	26	29	1	9	416.2540	29	0	800	3397.5913	 0.0007	53.7373	54.5540	55.2708	55.6881	0
302	26	30	1	9	337.6438	29	1	800	3397.5913	 0.0007	 0.0227	 0.8395	 1.5560	 1.8949	0
302	27	1	1	9	330.1261	56	1	800	3474.7580	 0.0009	 0.0066	 0.8233	 1.5401	 1.8714	0
302	27	2	1	9	390.8846	56	1	800	3474.7580	 0.0009	 1.8900	 2.7066	 3.4234	 3.8153	0
302	27	3	1	9	402.1630	56	1	800	3474.7580	 0.0009	 3.8233	 4.6401	 5.3567	 5.7598	0
302	27	4	1	9	315.5208	29	1	800	3474.7580	 0.0009	 5.7733	 6.5899	 7.3068	 7.6234	0
302	27	5	1	9	368.6795	56	1	800	3474.7580	 0.0009	 7.6399	 8.4567	 9.1734	 9.5431	0
302	27	6	1	9	260.9175	56	1	800	3474.7580	 0.0009	 9.5566	10.3734	11.0900	11.3519	0
302	27	7	1	9	387.8643	56	1	800	3474.7580	 0.0009	11.3733	12.1900	12.9067	13.2956	0
302	27	8	1	9	294.2138	29	1	800	3474.7580	 0.0009	13.3066	14.1233	14.8400	15.1353	0
302	27	9	1	9	572.9397	29	1	800	3474.7580	 0.0009	15.1566	15.9734	16.6900	17.2639	0
302	27	10	1	9	367.6776	29	1	800	3474.7580	 0.0009	17.2733	18.0900	18.8066	19.1754	0
302	27	11	1	9	618.7134	29	1	800	3474.7580	 0.0009	19.1899	20.0066	20.7234	21.3431	0
302	27	12	1	9	316.6145	29	1	800	3474.7580	 0.0009	21.3566	22.1733	22.8900	23.2076	0
302	28	1	1	10	314.2406	56	1	800	3519.9413	 0.0017	 0.0073	 0.8240	 1.5406	 1.8558	0
302	28	2	1	10	310.7191	56	1	800	3519.9413	 0.0017	 1.8739	 2.6907	 3.4073	 3.7190	0
302	28	3	1	10	300.4619	56	1	800	3519.9413	 0.0017	 3.7406	 4.5572	 5.2740	 5.5755	0
302	28	4	1	10	306.2170	56	1	800	3519.9413	 0.0017	 5.5905	 6.4074	 7.1240	 7.4313	0
302	28	5	1	10	312.1598	56	1	800	3519.9413	 0.0017	 7.4406	 8.2573	 8.9740	 9.2872	0
302	28	6	1	10	317.9349	29	1	800	3519.9413	 0.0017	 9.3073	10.1239	10.8406	11.1596	0
302	28	7	1	10	426.9222	29	1	800	3519.9413	 0.0017	11.1739	11.9906	12.7073	13.1352	0
302	28	8	1	10	356.1769	29	1	800	3519.9413	 0.0017	13.1572	13.9739	14.6906	15.0477	0
302	28	9	1	10	287.6447	56	1	800	3519.9413	 0.0017	15.0572	15.8740	16.5906	16.8794	0
302	28	10	1	10	350.0370	29	1	800	3519.9413	 0.0017	16.8905	17.7074	18.4241	18.7751	0
302	28	11	1	10	370.1121	29	1	800	3519.9413	 0.0017	18.7906	19.6073	20.3240	20.6951	0
302	28	12	1	10	333.4315	29	1	800	3519.9413	 0.0017	20.7072	21.5240	22.2407	22.5752	0
302	28	13	1	10	546.1182	29	1	800	3519.9413	 0.0017	22.5906	23.4073	24.1240	24.6712	0
302	28	14	1	10	326.1190	29	1	800	3519.9413	 0.0017	24.6906	25.5073	26.2240	26.5511	0
302	28	15	1	10	340.1243	56	1	800	3519.9413	 0.0017	26.5572	27.3740	28.0907	28.4318	0
302	28	16	1	10	272.8997	56	1	800	3519.9413	 0.0017	28.4406	29.2574	29.9740	30.2479	0
302	28	17	1	10	256.2227	56	1	800	3519.9413	 0.0017	30.2572	31.0739	31.7906	32.0479	0
302	28	18	1	10	303.9018	29	1	800	3519.9413	 0.0017	32.0572	32.8740	33.5906	33.8955	0
302	28	19	1	10	550.2326	29	1	800	3519.9413	 0.0017	33.9072	34.7240	35.4406	35.9919	0
302	28	20	1	10	322.2192	56	1	800	3519.9413	 0.0017	36.0072	36.8240	37.5406	37.8638	0
302	28	21	1	10	327.2067	56	1	800	3519.9413	 0.0017	37.8739	38.6906	39.4073	39.7355	0
302	28	22	1	10	291.8618	56	1	800	3519.9413	 0.0017	39.7573	40.5740	41.2907	41.5836	0
302	28	23	1	10	298.0600	56	0	800	3519.9413	 0.0017	41.5906	42.4073	43.1240	43.4230	0
302	28	24	1	10	345.1607	29	1	800	3519.9413	 0.0017	 0.0081	 0.8248	 1.5415	 1.8877	0
302	28	25	1	10	333.6355	56	1	800	3519.9413	 0.0017	 1.9081	 2.7248	 3.4414	 3.7760	0
302	28	26	1	10	385.8592	29	1	800	3519.9413	 0.0017	 3.7914	 4.6082	 5.3248	 5.7121	0
302	28	27	1	10	308.1923	56	1	800	3519.9413	 0.0017	 5.7247	 6.5415	 7.2581	 7.5672	0
302	28	28	1	10	314.8385	56	1	800	3519.9413	 0.0017	 7.5747	 8.3915	 9.1081	 9.4239	0
302	28	29	1	10	335.4677	29	1	800	3519.9413	 0.0017	 9.4414	10.2581	10.9748	11.3113	0
302	28	30	1	10	324.0891	56	1	800	3519.9413	 0.0017	11.3247	12.1415	12.8581	13.1839	0
302	29	1	1	10	303.0062	29	0	800	3588.6747	 0.0009	 0.0033	 0.8200	 1.5366	 1.8407	0
302	29	2	1	10	438.4080	29	1	800	3588.6747	 0.0009	 0.0121	 0.8289	 1.5455	 1.9848	0
302	29	3	1	10	574.6353	29	1	800	3588.6747	 0.0009	 1.9955	 2.8123	 3.5289	 4.1045	0
302	29	4	1	10	329.4712	56	1	800	3588.6747	 0.0009	 4.1121	 4.9288	 5.6455	 5.9759	0
302	29	5	1	10	390.2577	29	1	800	3588.6747	 0.0009	 5.9955	 6.8122	 7.5288	 7.9201	0
302	29	6	1	10	329.4993	56	1	800	3588.6747	 0.0009	 7.9288	 8.7456	 9.4622	 9.7927	0
302	29	7	1	10	461.5781	56	1	800	3588.6747	 0.0009	 9.8121	10.6289	11.3455	11.8082	0
302	29	8	1	10	356.9440	29	1	800	3588.6747	 0.0009	11.8288	12.6455	13.3621	13.7201	0
302	29	9	1	10	312.9379	56	1	800	3588.6747	 0.0009	13.7288	14.5456	15.2621	15.5761	0
302	29	10	1	10	366.8269	29	1	800	3588.6747	 0.0009	15.5955	16.4122	17.1289	17.4966	0
302	29	11	1	10	370.4216	29	1	800	3588.6747	 0.0009	17.5121	18.3289	19.0455	19.4169	0
302	29	12	1	10	421.4471	29	1	800	3588.6747	 0.0009	19.4288	20.2455	20.9622	21.3846	0
302	29	1	2	10	392.5232	56	1	800	3588.6747	 0.0009	 0.0090	 0.8257	 1.5424	 1.9360	21.3874
302	29	2	2	10	362.9605	29	1	800	3588.6747	 0.0009	 1.9423	 2.7590	 3.4757	 3.8397	21.3874
302	29	3	2	10	478.8085	29	1	800	3588.6747	 0.0009	 3.8590	 4.6757	 5.3924	 5.8721	21.3874
302	29	4	2	10	348.9200	56	1	800	3588.6747	 0.0009	 5.8923	 6.7090	 7.4257	 7.7758	21.3874
302	29	5	2	10	353.6394	29	1	800	3588.6747	 0.0009	 7.7925	 8.6091	 9.3257	 9.6803	21.3874
302	29	6	2	10	373.6694	56	1	800	3588.6747	 0.0009	 9.6924	10.5091	11.2256	11.6003	21.3874
302	29	7	2	10	424.5744	56	1	800	3588.6747	 0.0009	11.6090	12.4257	13.1424	13.5680	21.3874
302	29	8	2	10	393.2320	29	1	800	3588.6747	 0.0009	13.5758	14.3924	15.1093	15.5040	21.3874
302	29	9	2	10	579.4787	56	1	800	3588.6747	 0.0009	15.5258	16.3424	17.0591	17.6397	21.3874
302	29	10	2	10	358.1588	29	1	800	3588.6747	 0.0009	17.6590	18.4757	19.1924	19.5517	21.3874
302	29	11	2	10	362.5994	29	1	800	3588.6747	 0.0009	19.5590	20.3758	21.0924	21.4561	21.3874
302	29	12	2	10	389.6075	29	1	800	3588.6747	 0.0009	21.4757	22.2923	23.0090	23.3996	21.3874
302	30	1	1	10	330.7444	56	1	800	3664.0580	 0.0007	 0.0145	 0.8312	 1.5479	 1.8796	0
302	30	2	1	10	295.6148	56	1	800	3664.0580	 0.0007	 1.8978	 2.7145	 3.4312	 3.7279	0
302	30	3	1	10	357.9186	29	1	800	3664.0580	 0.0007	 3.7478	 4.5646	 5.2812	 5.6401	0
302	30	4	1	10	329.4558	56	1	800	3664.0580	 0.0007	 5.6478	 6.4646	 7.1812	 7.5119	0
302	30	5	1	10	334.3966	29	1	800	3664.0580	 0.0007	 7.5311	 8.3480	 9.0646	 9.4001	0
302	30	6	1	10	371.5020	29	1	800	3664.0580	 0.0007	 9.4145	10.2313	10.9479	11.3203	0
302	30	7	1	10	446.9059	29	1	800	3664.0580	 0.0007	11.3311	12.1479	12.8646	13.3124	0
302	30	8	1	10	358.2473	29	1	800	3664.0580	 0.0007	13.3312	14.1479	14.8645	15.2238	0
302	30	9	1	10	482.8033	29	1	800	3664.0580	 0.0007	15.2312	16.0479	16.7646	17.2483	0
302	30	10	1	10	369.1763	29	1	800	3664.0580	 0.0007	17.2645	18.0813	18.7978	19.1685	0
302	30	11	1	10	364.1294	29	1	800	3664.0580	 0.0007	19.1812	19.9978	20.7145	21.0801	0
302	30	12	1	10	343.9448	29	1	800	3664.0580	 0.0007	21.0978	21.9145	22.6313	22.9762	0
302	30	13	1	10	347.6207	29	1	800	3664.0580	 0.0007	22.9978	23.8145	24.5312	24.8805	0
302	30	14	1	10	423.5127	56	0	800	3664.0580	 0.0007	24.8978	25.7146	26.4312	26.8558	0
302	30	15	1	10	553.6091	29	1	800	3664.0580	 0.0007	 0.0166	 0.8332	 1.5499	 2.1046	0
302	30	16	1	10	413.5772	29	1	800	3664.0580	 0.0007	 2.1165	 2.9332	 3.6499	 4.0645	0
302	30	17	1	10	294.1619	56	1	800	3664.0580	 0.0007	 4.0832	 4.8999	 5.6166	 5.9118	0
302	30	18	1	10	396.9230	56	1	800	3664.0580	 0.0007	 5.9332	 6.7500	 7.4666	 7.8645	0
302	30	19	1	10	566.1056	29	1	800	3664.0580	 0.0007	 7.8832	 8.7000	 9.4167	 9.9838	0
302	30	20	1	10	369.8097	56	1	800	3664.0580	 0.0007	 9.9999	10.8165	11.5333	11.9042	0
302	30	21	1	10	469.1733	29	1	800	3664.0580	 0.0007	11.9165	12.7334	13.4500	13.9202	0
302	30	22	1	10	372.5278	29	1	800	3664.0580	 0.0007	13.9332	14.7499	15.4665	15.8401	0
302	30	23	1	10	312.2166	29	1	800	3664.0580	 0.0007	15.8499	16.6666	17.3833	17.6965	0
302	30	24	1	10	380.7841	29	1	800	3664.0580	 0.0007	17.7165	18.5333	19.2500	19.6317	0
302	30	25	1	10	391.5761	29	0	800	3664.0580	 0.0007	19.6499	20.4667	21.1833	21.5760	0
302	30	26	1	10	330.5500	29	1	800	3664.0580	 0.0007	 0.0151	 0.8319	 1.5485	 1.8801	0
302	30	27	1	10	303.4946	56	1	800	3664.0580	 0.0007	 1.8985	 2.7153	 3.4319	 3.7363	0
302	30	28	1	10	492.8578	29	1	800	3664.0580	 0.0007	 3.7484	 4.5652	 5.2819	 5.7757	0
302	30	29	1	10	467.4031	29	1	800	3664.0580	 0.0007	 5.7818	 6.5986	 7.3152	 7.7836	0
302	30	30	1	10	354.9682	29	1	800	3664.0580	 0.0007	 7.7984	 8.6152	 9.3318	 9.6878	0
302	31	1	1	11	399.6220	56	1	800	3732.0580	 0.0007	 0.0107	 0.8273	 1.5440	 1.9447	0
302	31	2	1	11	513.6478	29	1	800	3732.0580	 0.0007	 1.9606	 2.7773	 3.4940	 4.0087	0
302	31	3	1	11	390.2529	29	1	800	3732.0580	 0.0007	 4.0273	 4.8440	 5.5607	 5.9520	0
302	31	4	1	11	297.6722	56	1	800	3732.0580	 0.0007	 5.9606	 6.7773	 7.4940	 7.7927	0
302	31	5	1	11	270.9595	56	1	800	3732.0580	 0.0007	 7.8106	 8.6274	 9.3441	 9.6160	0
302	31	6	1	11	302.2810	56	1	800	3732.0580	 0.0007	 9.6273	10.4440	11.1607	11.4639	0
302	31	7	1	11	332.0504	56	1	800	3732.0580	 0.0007	11.4773	12.2941	13.0107	13.3440	0
302	31	8	1	11	321.1595	29	1	800	3732.0580	 0.0007	13.3607	14.1774	14.8940	15.2165	0
302	31	9	1	11	366.9696	29	1	800	3732.0580	 0.0007	15.2274	16.0440	16.7606	17.1286	0
302	31	10	1	11	330.2118	56	1	800	3732.0580	 0.0007	17.1440	17.9607	18.6774	19.0085	0
302	31	11	1	11	318.4613	56	1	800	3732.0580	 0.0007	19.0273	19.8439	20.5607	20.8802	0
302	31	12	1	11	275.8909	56	1	800	3732.0580	 0.0007	20.8939	21.7107	22.4273	22.7041	0
302	32	1	1	11	297.9633	56	1	800	3778.4413	 0.0007	 0.0067	 0.8235	 1.5401	 1.8391	0
302	32	2	1	11	319.9563	56	1	800	3778.4413	 0.0007	 1.8567	 2.6734	 3.3901	 3.7111	0
302	32	3	1	11	284.6241	56	1	800	3778.4413	 0.0007	 3.7234	 4.5401	 5.2568	 5.5424	0
302	32	4	1	11	323.6476	56	1	800	3778.4413	 0.0007	 5.5567	 6.3734	 7.0900	 7.4147	0
302	32	5	1	11	400.8663	29	1	800	3778.4413	 0.0007	 7.4234	 8.2401	 8.9567	 9.3585	0
302	32	6	1	11	427.1745	29	1	800	3778.4413	 0.0007	 9.3734	10.1900	10.9067	11.3349	0
302	32	7	1	11	292.2340	56	1	800	3778.4413	 0.0007	11.3567	12.1735	12.8901	13.1833	0
302	32	8	1	11	306.0299	29	1	800	3778.4413	 0.0007	13.1900	14.0068	14.7235	15.0305	0
302	32	9	1	11	360.4462	29	1	800	3778.4413	 0.0007	15.0400	15.8568	16.5734	16.9349	0
302	32	10	1	11	371.4980	29	1	800	3778.4413	 0.0007	16.9567	17.7735	18.4900	18.8625	0
302	32	11	1	11	366.8190	29	1	800	3778.4413	 0.0007	18.8734	19.6901	20.4068	20.7746	0
302	32	12	1	11	346.5610	56	1	800	3778.4413	 0.0007	20.7900	21.6068	22.3234	22.6710	0
302	32	13	1	11	318.1691	56	1	800	3778.4413	 0.0007	22.6900	23.5067	24.2234	24.5425	0
302	32	14	1	11	323.7076	29	1	800	3778.4413	 0.0007	24.5567	25.3734	26.0901	26.4149	0
302	32	15	1	11	368.9230	29	1	800	3778.4413	 0.0007	26.4234	27.2401	27.9568	28.3268	0
302	32	16	1	11	332.5084	29	1	800	3778.4413	 0.0007	28.3400	29.1568	29.8734	30.2070	0
302	32	17	1	11	353.5296	56	1	800	3778.4413	 0.0007	30.2234	31.0402	31.7568	32.1112	0
302	32	18	1	11	309.4259	56	1	800	3778.4413	 0.0007	32.1234	32.9401	33.6568	33.9672	0
302	32	19	1	11	355.8651	29	1	800	3778.4413	 0.0007	33.9734	34.7901	35.5068	35.8639	0
302	32	20	1	11	326.7530	56	1	800	3778.4413	 0.0007	35.8734	36.6901	37.4068	37.7346	0
302	32	21	1	11	275.7473	56	1	800	3778.4413	 0.0007	37.7567	38.5734	39.2901	39.5669	0
302	32	22	1	11	299.6465	56	1	800	3778.4413	 0.0007	39.5734	40.3901	41.1067	41.4073	0
302	32	23	1	11	329.2928	29	1	800	3778.4413	 0.0007	41.4234	42.2401	42.9568	43.2872	0
302	32	24	1	11	389.5843	56	1	800	3778.4413	 0.0007	43.3067	44.1234	44.8401	45.2308	0
302	32	25	1	11	400.9308	29	1	800	3778.4413	 0.0007	45.2400	46.0567	46.7734	47.1754	0
302	32	26	1	11	370.9524	29	1	800	3778.4413	 0.0007	47.1900	48.0068	48.7234	49.0954	0
302	32	27	1	11	318.1740	56	1	800	3778.4413	 0.0007	49.1067	49.9234	50.6401	50.9592	0
302	32	28	1	11	339.7041	29	1	800	3778.4413	 0.0007	50.9734	51.7901	52.5067	52.8474	0
302	32	29	1	11	407.6793	29	1	800	3778.4413	 0.0007	52.8567	53.6734	54.3901	54.7988	0
302	32	30	1	11	610.0967	29	1	800	3778.4413	 0.0007	54.8067	55.6235	56.3401	56.9511	0
302	33	1	1	11	331.9454	56	0	800	3857.1917	 0.0010	 0.0138	 0.8306	 1.5473	 1.8803	0
302	33	2	1	11	280.1898	56	1	800	3857.1917	 0.0010	 0.0088	 0.8255	 1.5421	 1.8233	0
302	33	3	1	11	295.0409	56	1	800	3857.1917	 0.0010	 1.8422	 2.6589	 3.3754	 3.6716	0
302	33	4	1	11	324.7881	29	1	800	3857.1917	 0.0010	 3.6921	 4.5089	 5.2255	 5.5515	0
302	33	5	1	11	490.8503	29	1	800	3857.1917	 0.0010	 5.5588	 6.3755	 7.0922	 7.5840	0
302	33	6	1	11	312.8470	56	1	800	3857.1917	 0.0010	 7.5921	 8.4088	 9.1255	 9.4393	0
302	33	7	1	11	278.2890	56	1	800	3857.1917	 0.0010	 9.4588	10.2755	10.9922	11.2715	0
302	33	8	1	11	333.4782	29	1	800	3857.1917	 0.0010	11.2921	12.1089	12.8255	13.1599	0
302	33	9	1	11	361.8034	29	1	800	3857.1917	 0.0010	13.1754	13.9922	14.7088	15.0716	0
302	33	10	1	11	365.6005	29	1	800	3857.1917	 0.0010	15.0921	15.9089	16.6256	16.9921	0
302	33	11	1	11	336.1866	56	1	800	3857.1917	 0.0010	17.0088	17.8256	18.5422	18.8795	0
302	33	12	1	11	349.6255	56	1	800	3857.1917	 0.0010	18.8921	19.7089	20.4254	20.7760	0
302	33	1	2	11	309.4154	56	1	800	3857.1917	 0.0010	 0.0121	 0.8287	 1.5454	 1.8558	20.7788
302	33	2	2	11	267.8187	56	1	800	3857.1917	 0.0010	 1.8620	 2.6788	 3.3954	 3.6644	20.7788
302	33	3	2	11	331.5898	29	1	800	3857.1917	 0.0010	 3.6787	 4.4954	 5.2121	 5.5446	20.7788
302	33	4	2	11	399.4925	29	1	800	3857.1917	 0.0010	 5.5620	 6.3788	 7.0955	 7.4960	20.7788
302	33	5	2	11	298.1340	56	1	800	3857.1917	 0.0010	 7.5120	 8.3287	 9.0454	 9.3444	20.7788
302	33	6	2	11	272.3078	56	1	800	3857.1917	 0.0010	 9.3620	10.1788	10.8954	11.1686	20.7788
302	33	7	2	11	375.5008	29	1	800	3857.1917	 0.0010	11.1787	11.9954	12.7120	13.0884	20.7788
302	33	8	2	11	338.2255	29	1	800	3857.1917	 0.0010	13.0953	13.9121	14.6288	14.9681	20.7788
302	33	9	2	11	350.9932	29	1	800	3857.1917	 0.0010	14.9787	15.7954	16.5120	16.8640	20.7788
302	33	10	2	11	379.5448	29	0	800	3857.1917	 0.0010	16.8787	17.6954	18.4121	18.7926	20.7788
302	33	11	2	11	335.4160	56	1	800	3857.1917	 0.0010	 0.0102	 0.8269	 1.5436	 1.8801	20.7788
302	33	12	2	11	284.8198	56	1	800	3857.1917	 0.0010	 1.8935	 2.7102	 3.4270	 3.7128	20.7788
302	33	1	3	11	554.2471	29	1	800	3857.1917	 0.0010	 0.0150	 0.8317	 1.5483	 2.1037	 3.7161
302	33	2	3	11	302.4446	56	1	800	3857.1917	 0.0010	 2.1150	 2.9317	 3.6485	 3.9519	 3.7161
302	33	3	3	11	244.1707	56	1	800	3857.1917	 0.0010	 3.9650	 4.7818	 5.4984	 5.7436	 3.7161
302	33	4	3	11	444.7967	29	1	800	3857.1917	 0.0010	 5.7650	 6.5816	 7.2984	 7.7441	 3.7161
302	33	5	3	11	389.0096	29	1	800	3857.1917	 0.0010	 7.7650	 8.5817	 9.2984	 9.6886	 3.7161
302	33	6	3	11	318.9923	29	1	800	3857.1917	 0.0010	 9.6983	10.5151	11.2316	11.5517	 3.7161
302	33	7	3	11	316.0681	56	1	800	3857.1917	 0.0010	11.5650	12.3818	13.0984	13.4155	 3.7161
302	33	8	3	11	249.7941	56	1	800	3857.1917	 0.0010	13.4317	14.2484	14.9651	15.2160	 3.7161
302	33	9	3	11	281.6079	56	1	800	3857.1917	 0.0010	15.2317	16.0484	16.7651	17.0477	 3.7161
302	33	10	3	11	264.5323	56	1	800	3857.1917	 0.0010	17.0650	17.8817	18.5984	18.8641	 3.7161
302	33	11	3	11	295.8217	56	1	800	3857.1917	 0.0010	18.8817	19.6983	20.4151	20.7120	 3.7161
302	33	12	3	11	317.4636	56	1	800	3857.1917	 0.0010	20.7317	21.5484	22.2651	22.5836	 3.7161
302	34	1	1	12	432.9371	29	0	800	3960.3747	 0.0007	 0.0174	 0.8341	 1.5508	 1.9847	0
302	34	2	1	12	386.9696	56	1	800	3960.3747	 0.0007	 0.0225	 0.8393	 1.5559	 1.9439	0
302	34	3	1	12	365.5733	29	1	800	3960.3747	 0.0007	 1.9559	 2.7726	 3.4892	 3.8559	0
302	34	4	1	12	416.7212	29	1	800	3960.3747	 0.0007	 3.8725	 4.6893	 5.4060	 5.8236	0
302	34	5	1	12	522.1407	29	1	800	3960.3747	 0.0007	 5.8392	 6.6559	 7.3726	 7.8957	0
302	34	6	1	12	319.4354	29	1	800	3960.3747	 0.0007	 7.9059	 8.7226	 9.4393	 9.7598	0
302	34	7	1	12	445.2184	56	1	800	3960.3747	 0.0007	 9.7725	10.5893	11.3059	11.7522	0
302	34	8	1	12	324.8277	29	1	800	3960.3747	 0.0007	11.7725	12.5893	13.3059	13.6319	0
302	34	9	1	12	322.6925	56	1	800	3960.3747	 0.0007	13.6392	14.4559	15.1726	15.4963	0
302	34	10	1	12	280.0138	56	1	800	3960.3747	 0.0007	15.5059	16.3226	17.0393	17.3203	0
302	34	11	1	12	295.0836	56	1	800	3960.3747	 0.0007	17.3392	18.1559	18.8725	19.1686	0
302	34	12	1	12	356.1284	29	1	800	3960.3747	 0.0007	19.1892	20.0059	20.7226	21.0798	0
302	34	13	1	12	272.2459	56	1	800	3960.3747	 0.0007	21.0892	21.9059	22.6226	22.8959	0
302	34	14	1	12	384.2841	56	1	800	3960.3747	 0.0007	22.9058	23.7226	24.4393	24.8246	0
302	34	15	1	12	274.8866	56	1	800	3960.3747	 0.0007	24.8392	25.6559	26.3726	26.6485	0
302	34	16	1	12	298.3022	56	1	800	3960.3747	 0.0007	26.6559	27.4726	28.1893	28.4886	0
302	34	17	1	12	280.2303	56	1	800	3960.3747	 0.0007	28.5059	29.3226	30.0393	30.3205	0
302	34	18	1	12	286.2323	29	0	800	3960.3747	 0.0007	30.3392	31.1560	31.8726	32.1600	0
302	34	19	1	12	431.6265	29	1	800	3960.3747	 0.0007	 0.0103	 0.8271	 1.5437	 1.9763	0
302	34	20	1	12	352.2729	29	1	800	3960.3747	 0.0007	 1.9937	 2.8104	 3.5270	 3.8803	0
302	34	21	1	12	355.7303	29	1	800	3960.3747	 0.0007	 3.8937	 4.7104	 5.4271	 5.7839	0
302	34	22	1	12	615.5924	29	1	800	3960.3747	 0.0007	 5.7937	 6.6103	 7.3271	 7.9437	0
302	34	23	1	12	304.7492	56	1	800	3960.3747	 0.0007	 7.9603	 8.7770	 9.4937	 9.7995	0
302	34	24	1	12	334.9927	29	1	800	3960.3747	 0.0007	 9.8103	10.6271	11.3437	11.6797	0
302	34	25	1	12	403.6890	56	1	800	3960.3747	 0.0007	11.6937	12.5104	13.2271	13.6318	0
302	34	26	1	12	302.2049	56	1	800	3960.3747	 0.0007	13.6437	14.4603	15.1771	15.4802	0
302	34	27	1	12	355.4069	29	1	800	3960.3747	 0.0007	15.4937	16.3104	17.0271	17.3836	0
302	34	28	1	12	303.5668	56	1	800	3960.3747	 0.0007	17.3937	18.2104	18.9271	19.2317	0
302	34	29	1	12	333.9002	29	1	800	3960.3747	 0.0007	19.2437	20.0604	20.7770	21.1120	0
302	34	30	1	12	394.0064	56	1	800	3960.3747	 0.0007	21.1270	21.9438	22.6604	23.0555	0
302	35	1	1	12	337.6301	29	1	800	4028.6580	 0.0009	 0.0080	 0.8247	 1.5414	 1.8800	0
302	35	2	1	12	341.7044	56	1	800	4028.6580	 0.0009	 1.8913	 2.7081	 3.4247	 3.7674	0
302	35	3	1	12	394.7674	29	1	800	4028.6580	 0.0009	 3.7746	 4.5913	 5.3080	 5.7037	0
302	35	4	1	12	420.7474	29	1	800	4028.6580	 0.0009	 5.7246	 6.5414	 7.2580	 7.6797	0
302	35	5	1	12	357.4625	29	1	800	4028.6580	 0.0009	 7.6913	 8.5080	 9.2247	 9.5832	0
302	35	6	1	12	345.7459	56	1	800	4028.6580	 0.0009	 9.5913	10.4080	11.1247	11.4714	0
302	35	7	1	12	605.5187	29	1	800	4028.6580	 0.0009	11.4913	12.3080	13.0247	13.6314	0
302	35	8	1	12	303.3564	56	1	800	4028.6580	 0.0009	13.6413	14.4580	15.1747	15.4791	0
302	35	9	1	12	366.3309	29	1	800	4028.6580	 0.0009	15.4913	16.3080	17.0247	17.3919	0
302	35	10	1	12	328.7547	56	1	800	4028.6580	 0.0009	17.4080	18.2247	18.9414	19.2712	0
302	35	11	1	12	341.5485	29	1	800	4028.6580	 0.0009	19.2913	20.1081	20.8246	21.1671	0
302	35	12	1	12	298.2479	56	1	800	4028.6580	 0.0009	21.1746	21.9913	22.7081	23.0074	0
302	36	1	1	12	392.3276	29	1	800	4068.5580	 0.0007	 0.0099	 0.8266	 1.5433	 1.9366	0
302	36	2	1	12	346.5881	29	1	800	4068.5580	 0.0007	 1.9432	 2.7599	 3.4766	 3.8242	0
302	36	3	1	12	374.1602	56	1	800	4068.5580	 0.0007	 3.8433	 4.6599	 5.3766	 5.7519	0
302	36	4	1	12	354.2395	29	1	800	4068.5580	 0.0007	 5.7599	 6.5767	 7.2933	 7.6486	0
302	36	5	1	12	437.5434	29	1	800	4068.5580	 0.0007	 7.6599	 8.4766	 9.1933	 9.6318	0
302	36	6	1	12	358.2411	29	1	800	4068.5580	 0.0007	 9.6432	10.4600	11.1766	11.5360	0
302	36	7	1	12	322.0312	56	1	800	4068.5580	 0.0007	11.5432	12.3599	13.0767	13.3998	0
302	36	8	1	12	335.5515	29	1	800	4068.5580	 0.0007	13.4099	14.2266	14.9433	15.2799	0
302	36	9	1	12	332.0474	29	1	800	4068.5580	 0.0007	15.2932	16.1100	16.8267	17.1598	0
302	36	10	1	12	336.9452	29	1	800	4068.5580	 0.0007	17.1767	17.9933	18.7100	19.0480	0
302	36	11	1	12	278.2186	29	1	800	4068.5580	 0.0007	19.0600	19.8766	20.5933	20.8725	0
302	36	12	1	12	348.5889	29	1	800	4068.5580	 0.0007	20.8934	21.7099	22.4266	22.7762	0
302	36	13	1	12	328.1748	56	1	800	4068.5580	 0.0007	22.7933	23.6100	24.3266	24.6559	0
