SUBID	BLOCK	TRIAL	REP	RUNID	RT	RESP	ACC	RSIJIT	EV_START	EV_BLOCK	EV_TRIAL	EV_RETRIEVAL	EV_PROBE	EV_RESP	EV_BLEND
303	1	1	1	1	699.8604	1	0	800	564.4505	 0.0059	 0.0141	 0.8640	 1.5807	 2.2824	0
303	1	2	1	1	654.4933	29	1	800	564.4505	 0.0059	 0.0269	 0.8436	 1.5603	 2.2186	0
303	1	3	1	1	699.4689	1	0	800	564.4505	 0.0059	 2.2436	 3.0768	 3.7935	 4.4944	0
303	1	4	1	1	699.4463	1	0	800	564.4505	 0.0059	 0.0132	 0.8299	 1.5465	 2.2471	0
303	1	5	1	1	482.1362	29	0	800	564.4505	 0.0059	 0.0291	 0.8457	 1.5623	 2.0569	0
303	1	6	1	1	699.6224	1	0	800	564.4505	 0.0059	 0.0133	 0.8300	 1.5467	 2.2480	0
303	1	7	1	1	699.6290	1	0	800	564.4505	 0.0059	 0.0120	 0.8286	 1.5453	 2.2460	0
303	1	8	1	1	699.8288	1	0	800	564.4505	 0.0059	 0.0234	 0.8401	 1.5568	 2.2574	0
303	1	9	1	1	699.8358	1	0	800	564.4505	 0.0059	 0.0167	 0.8334	 1.5501	 2.2507	0
303	1	10	1	1	648.7410	56	1	800	564.4505	 0.0059	 0.0166	 0.8333	 1.5499	 2.2001	0
303	1	11	1	1	625.1086	56	1	800	564.4505	 0.0059	 2.2166	 3.0334	 3.7499	 4.3763	0
303	1	12	1	1	617.4245	56	1	800	564.4505	 0.0059	 4.3999	 5.2166	 5.9333	 6.5525	0
303	1	1	2	1	699.5893	1	0	800	564.4505	 0.0059	 0.0056	 0.8221	 1.5389	 2.2394	 6.5556
303	1	2	2	1	459.4518	56	1	800	564.4505	 0.0059	 0.0219	 0.8385	 1.5552	 2.0161	 6.5556
303	1	3	2	1	546.5478	56	0	800	564.4505	 0.0059	 2.0386	 2.8552	 3.5719	 4.1194	 6.5556
303	1	4	2	1	394.9784	56	1	800	564.4505	 0.0059	 0.0152	 0.8318	 1.5485	 1.9446	 6.5556
303	1	5	2	1	604.9519	29	0	800	564.4505	 0.0059	 1.9652	 2.7819	 3.4984	 4.1045	 6.5556
303	1	6	2	1	608.7133	29	1	800	564.4505	 0.0059	 0.0101	 0.8259	 1.5424	 2.1523	 6.5556
303	1	7	2	1	699.6100	1	0	800	564.4505	 0.0059	 2.1592	 2.9757	 3.6925	 4.3928	 6.5556
303	1	8	2	1	543.3619	29	0	800	564.4505	 0.0059	 0.0175	 0.8341	 1.5508	 2.0954	 6.5556
303	1	9	2	1	611.3489	29	0	800	564.4505	 0.0059	 0.0223	 0.8389	 1.5556	 2.1680	 6.5556
303	1	10	2	1	460.1438	56	1	800	564.4505	 0.0059	 0.0132	 0.8298	 1.5464	 2.0077	 6.5556
303	1	11	2	1	611.4512	56	1	800	564.4505	 0.0059	 2.0298	 2.8465	 3.5632	 4.1757	 6.5556
303	1	12	2	1	652.6027	29	1	800	564.4505	 0.0059	 4.1966	 5.0132	 5.7299	 6.3835	 6.5556
303	1	1	3	1	699.8548	1	0	800	564.4505	 0.0059	 0.0186	 0.8352	 1.5519	 2.2524	 6.3867
303	1	2	3	1	478.0378	56	0	800	564.4505	 0.0059	 0.0190	 0.8357	 1.5523	 2.0315	 6.3867
303	1	3	3	1	395.8686	56	1	800	564.4505	 0.0059	 0.0132	 0.8299	 1.5466	 1.9435	 6.3867
303	1	4	3	1	678.0991	29	0	800	564.4505	 0.0059	 1.9633	 2.7799	 3.4965	 4.1756	 6.3867
303	1	5	3	1	650.5546	29	1	800	564.4505	 0.0059	 0.0230	 0.8397	 1.5563	 2.2079	 6.3867
303	1	6	3	1	682.6340	56	0	800	564.4505	 0.0059	 2.2230	 3.0396	 3.7563	 4.4401	 6.3867
303	1	7	3	1	699.4404	1	0	800	564.4505	 0.0059	 0.0082	 0.8243	 1.5410	 2.2412	 6.3867
303	1	8	3	1	699.8083	1	0	800	564.4505	 0.0059	 0.0170	 0.8336	 1.5502	 2.2508	 6.3867
303	1	9	3	1	488.5594	56	1	800	564.4505	 0.0059	 0.0094	 0.8261	 1.5428	 2.0324	 6.3867
303	1	10	3	1	550.8447	56	1	800	564.4505	 0.0059	 2.0427	 2.8594	 3.5760	 4.1279	 6.3867
303	1	11	3	1	570.7140	29	1	800	564.4505	 0.0059	 4.1428	 4.9594	 5.6761	 6.2478	 6.3867
303	1	12	3	1	622.6039	29	1	800	564.4505	 0.0059	 6.2594	 7.0761	 7.7927	 8.4163	 6.3867
303	1	1	4	1	411.7493	56	1	800	564.4505	 0.0059	 0.0142	 0.8309	 1.5475	 1.9604	 8.4188
303	1	2	4	1	677.6098	29	1	800	564.4505	 0.0059	 1.9808	 2.7975	 3.5142	 4.1929	 8.4188
303	1	3	4	1	515.2522	56	0	800	564.4505	 0.0059	 4.2141	 5.0309	 5.7475	 6.2637	 8.4188
303	1	4	4	1	661.9688	56	1	800	564.4505	 0.0059	 0.0203	 0.8370	 1.5537	 2.2167	 8.4188
303	1	5	4	1	645.3115	56	1	800	564.4505	 0.0059	 2.2370	 3.0537	 3.7703	 4.4165	 8.4188
303	1	6	4	1	372.8459	56	1	800	564.4505	 0.0059	 4.4370	 5.2537	 5.9703	 6.3442	 8.4188
303	1	7	4	1	699.5707	1	0	800	564.4505	 0.0059	 6.3536	 7.1703	 7.8870	 8.5873	 8.4188
303	1	8	4	1	699.6926	1	0	800	564.4505	 0.0059	 0.0129	 0.8296	 1.5462	 2.2466	 8.4188
303	1	9	4	1	668.0696	29	1	800	564.4505	 0.0059	 0.0137	 0.8305	 1.5471	 2.2163	 8.4188
303	1	10	4	1	699.5629	1	0	800	564.4505	 0.0059	 2.2305	 3.0471	 3.7638	 4.4642	 8.4188
303	1	11	4	1	645.0979	56	0	800	564.4505	 0.0059	 0.0210	 0.8376	 1.5542	 2.2004	 8.4188
303	1	12	4	1	683.8603	29	1	800	564.4505	 0.0059	 0.0209	 0.8376	 1.5543	 2.2392	 8.4188
303	1	1	5	1	699.7031	1	0	800	564.4505	 0.0059	 0.0048	 0.8216	 1.5382	 2.2386	 2.2419
303	1	2	5	1	699.4830	1	0	800	564.4505	 0.0059	 0.0082	 0.8249	 1.5417	 2.2419	 2.2419
303	1	3	5	1	574.5661	29	1	800	564.4505	 0.0059	 0.0185	 0.8351	 1.5519	 2.1275	 2.2419
303	1	4	5	1	658.6614	29	0	800	564.4505	 0.0059	 2.1351	 2.9518	 3.6685	 4.3281	 2.2419
303	1	5	5	1	699.7633	1	0	800	564.4505	 0.0059	 0.0178	 0.8345	 1.5511	 2.2516	 2.2419
303	1	6	5	1	436.4230	56	1	800	564.4505	 0.0059	 0.0217	 0.8383	 1.5548	 1.9923	 2.2419
303	1	7	5	1	699.4621	1	0	800	564.4505	 0.0059	 2.0049	 2.8216	 3.5383	 4.2384	 2.2419
303	1	8	5	1	554.7926	29	1	800	564.4505	 0.0059	 0.0067	 0.8234	 1.5402	 2.0961	 2.2419
303	1	9	5	1	598.7757	29	1	800	564.4505	 0.0059	 2.1068	 2.9234	 3.6401	 4.2400	 2.2419
303	1	10	5	1	368.9747	56	1	800	564.4505	 0.0059	 4.2568	 5.0735	 5.7902	 6.1602	 2.2419
303	1	11	5	1	388.0079	56	1	800	564.4505	 0.0059	 6.1735	 6.9901	 7.7068	 8.0958	 2.2419
303	1	12	5	1	519.4743	29	1	800	564.4505	 0.0059	 8.1068	 8.9235	 9.6401	10.1606	 2.2419
303	1	1	6	1	503.3166	56	0	800	564.4505	 0.0059	 0.0102	 0.8269	 1.5436	 2.0480	10.1644
303	1	2	6	1	699.7982	1	0	800	564.4505	 0.0059	 0.0172	 0.8339	 1.5506	 2.2511	10.1644
303	1	3	6	1	418.0709	56	1	800	564.4505	 0.0059	 0.0200	 0.8324	 1.5490	 1.9682	10.1644
303	1	4	6	1	515.3725	56	1	800	564.4505	 0.0059	 1.9824	 2.7990	 3.5157	 4.0321	10.1644
303	1	5	6	1	353.3615	56	1	800	564.4505	 0.0059	 4.0489	 4.8657	 5.5823	 5.9366	10.1644
303	1	6	6	1	556.7648	29	1	800	564.4505	 0.0059	 5.9490	 6.7657	 7.4823	 8.0402	10.1644
303	1	7	6	1	544.7653	56	0	800	564.4505	 0.0059	 8.0490	 8.8657	 9.5823	10.1281	10.1644
303	1	8	6	1	410.0021	56	1	800	564.4505	 0.0059	 0.0148	 0.8314	 1.5481	 1.9592	10.1644
303	1	9	6	1	404.1872	56	1	800	564.4505	 0.0059	 1.9647	 2.7814	 3.4981	 3.9033	10.1644
303	1	10	6	1	630.8112	29	1	800	564.4505	 0.0059	 3.9148	 4.7314	 5.4480	 6.0798	10.1644
303	1	11	6	1	686.5875	29	1	800	564.4505	 0.0059	 6.0981	 6.9147	 7.6314	 8.3190	10.1644
303	1	12	6	1	422.3859	29	1	800	564.4505	 0.0059	 8.3314	 9.1481	 9.8647	10.2884	10.1644
303	1	1	7	1	475.0425	56	1	800	564.4505	 0.0059	 0.0152	 0.8319	 1.5485	 2.0246	10.2910
303	1	2	7	1	594.3519	56	0	800	564.4505	 0.0059	 2.0318	 2.8485	 3.5652	 4.1605	10.2910
303	1	3	7	1	601.2974	29	1	800	564.4505	 0.0059	 0.0077	 0.8244	 1.5411	 2.1435	10.2910
303	1	4	7	1	700.0291	1	0	800	564.4505	 0.0059	 2.1578	 2.9744	 3.6912	 4.3919	10.2910
303	1	5	7	1	699.8281	1	0	800	564.4505	 0.0059	 0.0107	 0.8273	 1.5439	 2.2445	10.2910
303	1	6	7	1	699.6349	1	0	800	564.4505	 0.0059	 0.0102	 0.8268	 1.5435	 2.2439	10.2910
303	1	7	7	1	699.8859	1	0	800	564.4505	 0.0059	 0.0096	 0.8263	 1.5430	 2.2436	10.2910
303	1	8	7	1	699.9002	1	0	800	564.4505	 0.0059	 0.0129	 0.8297	 1.5463	 2.2469	10.2910
303	1	9	7	1	699.7338	1	0	800	564.4505	 0.0059	 0.0088	 0.8255	 1.5422	 2.2431	10.2910
303	1	10	7	1	643.9832	56	1	800	564.4505	 0.0059	 0.0196	 0.8363	 1.5529	 2.1978	10.2910
303	1	11	7	1	419.8618	56	1	800	564.4505	 0.0059	 2.2197	 3.0363	 3.7530	 4.1738	10.2910
303	1	12	7	1	685.1982	29	1	800	564.4505	 0.0059	 4.1862	 5.0029	 5.7196	 6.4058	10.2910
303	1	1	8	1	475.2250	56	1	800	564.4505	 0.0059	 0.0060	 0.8227	 1.5393	 2.0155	 6.4084
303	1	2	8	1	442.6575	56	1	800	564.4505	 0.0059	 2.0226	 2.8393	 3.5560	 3.9998	 6.4084
303	1	3	8	1	699.3603	29	1	800	564.4505	 0.0059	 4.0060	 4.8227	 5.5394	 6.2398	 6.4084
303	1	4	8	1	522.0730	56	0	800	564.4505	 0.0059	 6.2561	 7.0727	 7.7894	 8.3124	 6.4084
303	1	5	8	1	686.0503	56	1	800	564.4505	 0.0059	 0.0114	 0.8282	 1.5448	 2.2318	 6.4084
303	1	6	8	1	404.0108	56	1	800	564.4505	 0.0059	 2.2448	 3.0615	 3.7781	 4.1832	 6.4084
303	1	7	8	1	589.9300	56	1	800	564.4505	 0.0059	 4.1947	 5.0115	 5.7282	 6.3191	 6.4084
303	1	8	8	1	568.7071	56	1	800	564.4505	 0.0059	 6.3281	 7.1448	 7.8614	 8.4312	 6.4084
303	1	9	8	1	676.5306	29	1	800	564.4505	 0.0059	 8.4447	 9.2614	 9.9780	10.6557	 6.4084
303	1	10	8	1	660.0143	56	0	800	564.4505	 0.0059	10.6614	11.4781	12.1948	12.8557	 6.4084
303	1	11	8	1	608.7064	29	1	800	564.4505	 0.0059	 0.0089	 0.8257	 1.5423	 2.1519	 6.4084
303	1	12	8	1	546.0064	29	1	800	564.4505	 0.0059	 2.1589	 2.9756	 3.6923	 4.2394	 6.4084
303	1	1	9	1	386.3012	56	1	800	564.4505	 0.0059	 0.0075	 0.8243	 1.5410	 1.9284	 4.2426
303	1	2	9	1	532.8625	29	1	800	564.4505	 0.0059	 1.9410	 2.7576	 3.4742	 4.0081	 4.2426
303	1	3	9	1	505.2628	56	0	800	564.4505	 0.0059	 4.0242	 4.8409	 5.5576	 6.0638	 4.2426
303	1	4	9	1	360.1891	56	1	800	564.4505	 0.0059	 0.0092	 0.8258	 1.5426	 1.9039	 4.2426
303	1	5	9	1	412.2507	56	1	800	564.4505	 0.0059	 1.9091	 2.7259	 3.4425	 3.8559	 4.2426
303	1	6	9	1	365.4832	56	1	800	564.4505	 0.0059	 3.8758	 4.6925	 5.4092	 5.7758	 4.2426
303	1	7	9	1	425.1063	56	1	800	564.4505	 0.0059	 5.7925	 6.6091	 7.3259	 7.7526	 4.2426
303	1	8	9	1	490.0889	29	1	800	564.4505	 0.0059	 7.7592	 8.5759	 9.2925	 9.7838	 4.2426
303	1	9	9	1	624.5981	29	1	800	564.4505	 0.0059	 9.7926	10.6091	11.3259	11.9515	 4.2426
303	1	10	9	1	617.9658	56	0	800	564.4505	 0.0059	11.9591	12.7759	13.4925	14.1117	 4.2426
303	1	11	9	1	600.5771	29	1	800	564.4505	 0.0059	 0.0096	 0.8263	 1.5430	 2.1446	 4.2426
303	1	12	9	1	458.1384	29	1	800	564.4505	 0.0059	 2.1596	 2.9763	 3.6930	 4.1522	 4.2426
303	1	1	10	1	381.2156	56	1	800	564.4505	 0.0059	 0.0123	 0.8289	 1.5458	 1.9280	 4.1547
303	1	2	10	1	488.2021	56	1	800	564.4505	 0.0059	 1.9456	 2.7623	 3.4789	 3.9682	 4.1547
303	1	3	10	1	438.5362	56	1	800	564.4505	 0.0059	 3.9789	 4.7956	 5.5123	 5.9519	 4.1547
303	1	4	10	1	503.5259	29	1	800	564.4505	 0.0059	 5.9623	 6.7790	 7.4956	 8.0001	 4.1547
303	1	5	10	1	533.4200	29	1	800	564.4505	 0.0059	 8.0123	 8.8290	 9.5457	10.0802	 4.1547
303	1	6	10	1	506.3451	29	1	800	564.4505	 0.0059	10.0956	10.9123	11.6290	12.1365	 4.1547
303	1	7	10	1	568.3964	29	1	800	564.4505	 0.0059	12.1456	12.9622	13.6790	14.2485	 4.1547
303	1	8	10	1	699.5053	1	0	800	564.4505	 0.0059	14.2623	15.0791	15.7957	16.4959	 4.1547
303	1	9	10	1	699.9077	1	0	800	564.4505	 0.0059	 0.0184	 0.8351	 1.5517	 2.2523	 4.1547
303	1	10	10	1	699.6446	1	0	800	564.4505	 0.0059	 0.0129	 0.8296	 1.5462	 2.2466	 4.1547
303	1	11	10	1	449.3578	56	1	800	564.4505	 0.0059	 0.0158	 0.8325	 1.5492	 1.9996	 4.1547
303	1	12	10	1	353.3329	56	1	800	564.4505	 0.0059	 2.0158	 2.8325	 3.5491	 3.9037	 4.1547
303	1	1	11	1	418.0696	56	1	800	564.4505	 0.0059	 0.0072	 0.8238	 1.5405	 1.9597	 3.9062
303	1	2	11	1	588.1929	56	1	800	564.4505	 0.0059	 1.9738	 2.7905	 3.5071	 4.0963	 3.9062
303	1	3	11	1	390.8406	56	1	800	564.4505	 0.0059	 4.1084	 4.9239	 5.6405	 6.0325	 3.9062
303	1	4	11	1	449.1650	56	0	800	564.4505	 0.0059	 6.0405	 6.8571	 7.5738	 8.0240	 3.9062
303	1	5	11	1	642.5694	29	1	800	564.4505	 0.0059	 0.0150	 0.8316	 1.5484	 2.1920	 3.9062
303	1	6	11	1	699.9435	1	0	800	564.4505	 0.0059	 2.1982	 3.0149	 3.7316	 4.4323	 3.9062
303	1	7	11	1	413.6939	29	1	800	564.4505	 0.0059	 0.0197	 0.8363	 1.5529	 1.9677	 3.9062
303	1	8	11	1	700.0128	1	0	800	564.4505	 0.0059	 1.9864	 2.8029	 3.5196	 4.2203	 3.9062
303	1	9	11	1	30.5593	56	0	800	564.4505	 0.0059	 0.0109	 0.8276	 1.5443	 1.5760	 3.9062
303	1	10	11	1	 0.0920	56	1	800	564.4505	 0.0059	 0.0122	 0.8290	 1.5456	 1.5469	 3.9062
303	1	11	11	1	407.6172	56	1	800	564.4505	 0.0059	 1.5622	 2.3789	 3.0956	 3.5044	 3.9062
303	1	12	11	1	217.3987	56	1	800	564.4505	 0.0059	 3.5122	 4.3289	 5.0456	 5.2641	 3.9062
303	1	1	12	1	619.3560	29	1	800	564.4505	 0.0059	 0.0141	 0.8308	 1.5475	 2.1680	 5.2666
303	1	2	12	1	699.8165	1	0	800	564.4505	 0.0059	 2.1809	 2.9975	 3.7141	 4.4147	 5.2666
303	1	3	12	1	550.5897	29	1	800	564.4505	 0.0059	 0.0114	 0.8281	 1.5448	 2.0965	 5.2666
303	1	4	12	1	618.8544	29	1	800	564.4505	 0.0059	 2.1113	 2.9280	 3.6447	 4.2646	 5.2666
303	1	5	12	1	459.9472	29	1	800	564.4505	 0.0059	 4.2780	 5.0948	 5.8114	 6.2723	 5.2666
303	1	6	12	1	387.3242	56	1	800	564.4505	 0.0059	 6.2780	 7.0948	 7.8114	 8.1998	 5.2666
303	1	7	12	1	366.3889	56	1	800	564.4505	 0.0059	 8.2114	 9.0280	 9.7447	10.1122	 5.2666
303	1	8	12	1	393.7925	56	1	800	564.4505	 0.0059	10.1280	10.9447	11.6613	12.0562	 5.2666
303	1	9	12	1	388.7356	56	1	800	564.4505	 0.0059	12.0613	12.8781	13.5947	13.9845	 5.2666
303	1	10	12	1	699.4608	1	0	800	564.4505	 0.0059	13.9947	14.8114	15.5280	16.2284	 5.2666
303	1	11	12	1	699.6840	1	0	800	564.4505	 0.0059	 0.0152	 0.8318	 1.5484	 2.2488	 5.2666
303	1	12	12	1	377.6844	56	1	800	564.4505	 0.0059	 0.0241	 0.8406	 1.5574	 1.9361	 5.2666
303	1	1	13	1	434.0896	56	1	800	564.4505	 0.0059	 0.0151	 0.8318	 1.5485	 1.9836	 1.9396
303	1	2	13	1	522.5174	56	1	800	564.4505	 0.0059	 1.9984	 2.8152	 3.5318	 4.0554	 1.9396
303	1	3	13	1	479.9937	29	1	800	564.4505	 0.0059	 4.0651	 4.8818	 5.5985	 6.0797	 1.9396
303	1	4	13	1	623.3090	29	1	800	564.4505	 0.0059	 6.0984	 6.9152	 7.6318	 8.2561	 1.9396
303	1	5	13	1	616.4223	29	1	800	564.4505	 0.0059	 8.2651	 9.0818	 9.7984	10.4160	 1.9396
303	1	6	13	1	545.5227	56	1	800	564.4505	 0.0059	10.4318	11.2484	11.9651	12.5117	 1.9396
303	1	7	13	1	461.3394	29	1	800	564.4505	 0.0059	12.5318	13.3485	14.0651	14.5275	 1.9396
303	1	8	13	1	420.5658	29	1	800	564.4505	 0.0059	14.5484	15.3652	16.0818	16.5034	 1.9396
303	1	9	13	1	542.6187	56	1	800	564.4505	 0.0059	16.5151	17.3318	18.0484	18.5920	 1.9396
303	1	10	13	1	699.0389	29	1	800	564.4505	 0.0059	18.5984	19.4151	20.1318	20.8319	 1.9396
303	1	11	13	1	395.4943	56	1	800	564.4505	 0.0059	20.8484	21.6652	22.3818	22.7788	 1.9396
303	1	12	13	1	354.6256	56	1	800	564.4505	 0.0059	22.7984	23.6151	24.3318	24.6876	 1.9396
303	2	1	1	1	565.2688	29	1	800	1745.1584	 0.0015	 0.0032	 0.8200	 1.5367	 2.1029	0
303	2	2	1	1	699.8595	1	0	800	1745.1584	 0.0015	 2.1200	 2.9366	 3.6533	 4.3544	0
303	2	3	1	1	609.7616	29	1	800	1745.1584	 0.0015	 0.0159	 0.8326	 1.5491	 2.1600	0
303	2	4	1	1	619.8893	56	1	800	1745.1584	 0.0015	 2.1658	 2.9825	 3.6992	 4.3200	0
303	2	5	1	1	532.6584	29	1	800	1745.1584	 0.0015	 4.3325	 5.1492	 5.8658	 6.3996	0
303	2	6	1	1	393.1583	56	1	800	1745.1584	 0.0015	 6.4158	 7.2325	 7.9492	 8.3434	0
303	2	7	1	1	556.3939	29	1	800	1745.1584	 0.0015	 8.3491	 9.1658	 9.8825	10.4400	0
303	2	8	1	1	463.8903	56	1	800	1745.1584	 0.0015	10.4491	11.2658	11.9825	12.4474	0
303	2	9	1	1	700.0360	1	0	800	1745.1584	 0.0015	12.4658	13.2825	13.9992	14.7000	0
303	2	10	1	1	699.5745	1	0	800	1745.1584	 0.0015	 0.0051	 0.8218	 1.5384	 2.2387	0
303	2	11	1	1	415.3590	56	1	800	1745.1584	 0.0015	 0.0104	 0.8271	 1.5438	 1.9601	0
303	2	12	1	1	520.1060	29	1	800	1745.1584	 0.0015	 1.9770	 2.7938	 3.5105	 4.0316	0
303	2	13	1	1	517.5050	29	1	800	1745.1584	 0.0015	 4.0437	 4.8604	 5.5771	 6.0958	0
303	2	14	1	1	434.7320	29	1	800	1745.1584	 0.0015	 6.1104	 6.9270	 7.6438	 8.0796	0
303	2	15	1	1	428.0220	56	1	800	1745.1584	 0.0015	 8.0937	 8.9105	 9.6271	10.0562	0
303	2	16	1	1	420.8243	29	0	800	1745.1584	 0.0015	10.0770	10.8938	11.6104	12.0322	0
303	2	17	1	1	409.0307	56	1	800	1745.1584	 0.0015	 0.0160	 0.8327	 1.5494	 1.9594	0
303	2	18	1	1	322.7112	56	1	800	1745.1584	 0.0015	 1.9660	 2.7826	 3.4994	 3.8233	0
303	2	19	1	1	360.2971	56	1	800	1745.1584	 0.0015	 3.8327	 4.6494	 5.3661	 5.7274	0
303	2	20	1	1	675.3475	29	1	800	1745.1584	 0.0015	 5.7493	 6.5661	 7.2828	 7.9592	0
303	2	21	1	1	402.7555	56	1	800	1745.1584	 0.0015	 7.9660	 8.7827	 9.4994	 9.9031	0
303	2	22	1	1	476.6612	29	0	800	1745.1584	 0.0015	 9.9160	10.7328	11.4493	11.9270	0
303	2	23	1	1	699.8439	1	0	800	1745.1584	 0.0015	 0.0114	 0.8281	 1.5448	 2.2453	0
303	2	24	1	1	562.2606	29	1	800	1745.1584	 0.0015	 0.0149	 0.8316	 1.5484	 2.1117	0
303	2	25	1	1	613.3612	29	1	800	1745.1584	 0.0015	 2.1316	 2.9482	 3.6649	 4.2793	0
303	2	26	1	1	622.8842	29	0	800	1745.1584	 0.0015	 4.2983	 5.1150	 5.8317	 6.4557	0
303	2	27	1	1	386.0723	56	1	800	1745.1584	 0.0015	 0.0149	 0.8316	 1.5483	 1.9354	0
303	2	28	1	1	540.6926	29	1	800	1745.1584	 0.0015	 1.9482	 2.7649	 3.4816	 4.0233	0
303	2	29	1	1	425.3253	56	1	800	1745.1584	 0.0015	 4.0316	 4.8483	 5.5650	 5.9914	0
303	2	30	1	1	698.9454	29	0	800	1745.1584	 0.0015	 5.9982	 6.8149	 7.5316	 8.2316	0
303	3	1	1	1	522.4617	29	1	800	1874.5251	 0.0023	 0.0067	 0.8235	 1.5401	 2.0636	0
303	3	2	1	1	463.1347	56	1	800	1874.5251	 0.0023	 2.0734	 2.8901	 3.6069	 4.0711	0
303	3	3	1	1	510.9702	56	1	800	1874.5251	 0.0023	 4.0901	 4.9068	 5.6234	 6.1355	0
303	3	4	1	1	540.3881	29	0	800	1874.5251	 0.0023	 6.1567	 6.9734	 7.6901	 8.2315	0
303	3	5	1	1	570.3410	29	1	800	1874.5251	 0.0023	 0.0149	 0.8315	 1.5483	 2.1197	0
303	3	6	1	1	653.5364	29	1	800	1874.5251	 0.0023	 2.1316	 2.9482	 3.6648	 4.3194	0
303	3	7	1	1	637.8115	56	1	800	1874.5251	 0.0023	 4.3315	 5.1483	 5.8648	 6.5038	0
303	3	8	1	1	446.6781	56	1	800	1874.5251	 0.0023	 6.5149	 7.3315	 8.0483	 8.4959	0
303	3	9	1	1	462.6351	29	1	800	1874.5251	 0.0023	 8.5149	 9.3316	10.0483	10.5118	0
303	3	10	1	1	669.8375	29	0	800	1874.5251	 0.0023	10.5315	11.3482	12.0648	12.7357	0
303	3	11	1	1	568.7873	56	1	800	1874.5251	 0.0023	 0.0092	 0.8258	 1.5424	 2.1122	0
303	3	12	1	1	492.1252	56	1	800	1874.5251	 0.0023	 2.1258	 2.9425	 3.6592	 4.1524	0
303	3	1	2	1	394.0706	56	1	800	1874.5251	 0.0023	 0.0156	 0.8323	 1.5490	 1.9440	 4.1547
303	3	2	2	1	413.4835	56	1	800	1874.5251	 0.0023	 1.9489	 2.7657	 3.4871	 3.9034	 4.1547
303	3	3	2	1	638.2138	29	0	800	1874.5251	 0.0023	 3.9156	 4.7324	 5.4490	 6.0884	 4.1547
303	3	4	2	1	462.9625	29	1	800	1874.5251	 0.0023	 0.0107	 0.8274	 1.5440	 2.0080	 4.1547
303	3	5	2	1	485.8794	56	1	800	1874.5251	 0.0023	 2.0274	 2.8440	 3.5608	 4.0476	 4.1547
303	3	6	2	1	413.1111	56	1	800	1874.5251	 0.0023	 4.0607	 4.8774	 5.5940	 6.0082	 4.1547
303	3	7	2	1	502.7139	29	1	800	1874.5251	 0.0023	 6.0274	 6.8441	 7.5607	 8.0643	 4.1547
303	3	8	2	1	436.8382	29	1	800	1874.5251	 0.0023	 8.0774	 8.8941	 9.6107	10.0485	 4.1547
303	3	9	2	1	525.4360	29	1	800	1874.5251	 0.0023	10.0612	10.8774	11.5940	12.1205	 4.1547
303	3	10	2	1	562.5173	56	1	800	1874.5251	 0.0023	12.1273	12.9440	13.6608	14.2243	 4.1547
303	3	11	2	1	405.3054	56	1	800	1874.5251	 0.0023	14.2440	15.0607	15.7773	16.1837	 4.1547
303	3	12	2	1	439.1758	56	1	800	1874.5251	 0.0023	16.1940	17.0107	17.7274	18.1677	 4.1547
303	3	1	3	1	471.3161	56	1	800	1874.5251	 0.0023	 0.0183	 0.8350	 1.5517	 2.0239	18.1702
303	3	2	3	1	365.9780	56	1	800	1874.5251	 0.0023	 2.0350	 2.8517	 3.5683	 3.9353	18.1702
303	3	3	3	1	377.3729	56	1	800	1874.5251	 0.0023	 3.9516	 4.7683	 5.4850	 5.8635	18.1702
303	3	4	3	1	452.5646	29	1	800	1874.5251	 0.0023	 5.8682	 6.6849	 7.4016	 7.8556	18.1702
303	3	5	3	1	661.4642	29	1	800	1874.5251	 0.0023	 7.8683	 8.6850	 9.4017	10.0642	18.1702
303	3	6	3	1	436.6519	29	1	800	1874.5251	 0.0023	10.0850	10.9017	11.6183	12.0559	18.1702
303	3	7	3	1	699.5462	1	0	800	1874.5251	 0.0023	12.0684	12.8850	13.6016	14.3018	18.1702
303	3	8	3	1	442.9917	29	1	800	1874.5251	 0.0023	 0.0063	 0.8229	 1.5397	 1.9838	18.1702
303	3	9	3	1	372.1622	56	1	800	1874.5251	 0.0023	 1.9896	 2.8063	 3.5230	 3.8962	18.1702
303	3	10	3	1	699.6739	1	0	800	1874.5251	 0.0023	 3.9064	 4.7230	 5.4397	 6.1401	18.1702
303	3	11	3	1	699.7889	1	0	800	1874.5251	 0.0023	 0.0067	 0.8235	 1.5401	 2.2406	18.1702
303	3	12	3	1	435.4399	56	1	800	1874.5251	 0.0023	 0.0149	 0.8316	 1.5482	 1.9847	18.1702
303	3	1	4	1	599.5345	29	1	800	1874.5251	 0.0023	 0.0181	 0.8347	 1.5514	 2.1521	 1.9870
303	3	2	4	1	689.6346	29	1	800	1874.5251	 0.0023	 2.1681	 2.9847	 3.7015	 4.3922	 1.9870
303	3	3	4	1	504.0936	29	1	800	1874.5251	 0.0023	 4.4014	 5.2181	 5.9348	 6.4401	 1.9870
303	3	4	4	1	517.9574	29	1	800	1874.5251	 0.0023	 6.4514	 7.2681	 7.9848	 8.5038	 1.9870
303	3	5	4	1	492.0399	56	1	800	1874.5251	 0.0023	 8.5181	 9.3348	10.0515	10.5445	 1.9870
303	3	6	4	1	497.9938	29	1	800	1874.5251	 0.0023	10.5514	11.3681	12.0848	12.5839	 1.9870
303	3	7	4	1	511.9332	29	1	800	1874.5251	 0.0023	12.6014	13.4181	14.1348	14.6478	 1.9870
303	3	8	4	1	462.1356	56	1	800	1874.5251	 0.0023	14.6681	15.4848	16.2014	16.6645	 1.9870
303	3	9	4	1	381.3920	56	1	800	1874.5251	 0.0023	16.6848	17.5015	18.2181	18.6005	 1.9870
303	3	10	4	1	503.7025	29	0	800	1874.5251	 0.0023	18.6181	19.4348	20.1515	20.6562	 1.9870
303	3	11	4	1	699.4678	1	0	800	1874.5251	 0.0023	 0.0148	 0.8314	 1.5481	 2.2483	 1.9870
303	3	12	4	1	699.7302	1	0	800	1874.5251	 0.0023	 0.0199	 0.8366	 1.5532	 2.2537	 1.9870
303	3	1	5	1	699.5807	1	0	800	1874.5251	 0.0023	 0.0109	 0.8277	 1.5442	 2.2445	 0.0024
303	3	2	5	1	699.5233	1	0	800	1874.5251	 0.0023	 0.0063	 0.8231	 1.5397	 2.2399	 0.0024
303	3	3	5	1	403.2621	56	1	800	1874.5251	 0.0023	 0.0216	 0.8382	 1.5550	 1.9592	 0.0024
303	3	4	5	1	397.3827	56	1	800	1874.5251	 0.0023	 1.9715	 2.7882	 3.5048	 3.9032	 0.0024
303	3	5	5	1	431.9284	29	1	800	1874.5251	 0.0023	 3.9216	 4.7383	 5.4549	 5.8878	 0.0024
303	3	6	5	1	360.1973	56	1	800	1874.5251	 0.0023	 5.9049	 6.7216	 7.4384	 7.7998	 0.0024
303	3	7	5	1	435.9373	56	1	800	1874.5251	 0.0023	 7.8048	 8.6216	 9.3383	 9.7752	 0.0024
303	3	8	5	1	317.4073	56	1	800	1874.5251	 0.0023	 9.7882	10.6050	11.3215	11.6399	 0.0024
303	3	9	5	1	474.0336	29	1	800	1874.5251	 0.0023	11.6549	12.4716	13.1883	13.6634	 0.0024
303	3	10	5	1	699.9435	1	0	800	1874.5251	 0.0023	13.6715	14.4882	15.2049	15.9056	 0.0024
303	3	11	5	1	483.2498	56	1	800	1874.5251	 0.0023	 0.0064	 0.8232	 1.5399	 2.0241	 0.0024
303	3	12	5	1	481.3280	29	1	800	1874.5251	 0.0023	 2.0398	 2.8564	 3.5731	 4.0554	 0.0024
303	3	1	6	1	383.7752	56	1	800	1874.5251	 0.0023	 0.0180	 0.8347	 1.5513	 1.9362	 4.0579
303	3	2	6	1	362.0214	56	1	800	1874.5251	 0.0023	 1.9513	 2.7680	 3.4847	 3.8479	 4.0579
303	3	3	6	1	445.9905	29	1	800	1874.5251	 0.0023	 3.8680	 4.6847	 5.4014	 5.8484	 4.0579
303	3	4	6	1	430.0117	56	1	800	1874.5251	 0.0023	 5.8680	 6.6846	 7.4014	 7.8324	 4.0579
303	3	5	6	1	317.9492	56	1	800	1874.5251	 0.0023	 7.8513	 8.6681	 9.3847	 9.7037	 4.0579
303	3	6	6	1	427.5833	29	1	800	1874.5251	 0.0023	 9.7180	10.5347	11.2514	11.6800	 4.0579
303	3	7	6	1	484.5476	29	1	800	1874.5251	 0.0023	11.6846	12.5014	13.2181	13.7040	 4.0579
303	3	8	6	1	451.5986	29	1	800	1874.5251	 0.0023	13.7180	14.5347	15.2514	15.7041	 4.0579
303	3	9	6	1	363.6002	56	1	800	1874.5251	 0.0023	15.7180	16.5347	17.2514	17.6162	 4.0579
303	3	10	6	1	358.9264	56	1	800	1874.5251	 0.0023	17.6347	18.4514	19.1680	19.5281	 4.0579
303	3	11	6	1	394.7726	56	1	800	1874.5251	 0.0023	19.5346	20.3513	21.0681	21.4639	 4.0579
303	3	12	6	1	412.7187	56	1	800	1874.5251	 0.0023	21.4847	22.3014	23.0180	23.4317	 4.0579
303	4	1	1	2	494.7818	29	1	800	2227.7914	 0.0013	 0.0030	 0.8197	 1.5364	 2.0323	0
303	4	2	1	2	485.0653	29	1	800	2227.7914	 0.0013	 2.0530	 2.8697	 3.5864	 4.0725	0
303	4	3	1	2	459.4513	29	1	800	2227.7914	 0.0013	 4.0864	 4.9031	 5.6197	 6.0801	0
303	4	4	1	2	475.9388	29	1	800	2227.7914	 0.0013	 6.0863	 6.9031	 7.6197	 8.0966	0
303	4	5	1	2	571.3546	56	1	800	2227.7914	 0.0013	 8.1030	 8.9197	 9.6364	10.2087	0
303	4	6	1	2	550.7022	29	1	800	2227.7914	 0.0013	10.2197	11.0365	11.7531	12.3048	0
303	4	7	1	2	514.6787	56	1	800	2227.7914	 0.0013	12.3197	13.1365	13.8531	14.3688	0
303	4	8	1	2	512.0483	29	0	800	2227.7914	 0.0013	14.3864	15.2031	15.9197	16.4326	0
303	4	9	1	2	336.3602	56	1	800	2227.7914	 0.0013	 0.0171	 0.8338	 1.5504	 1.8878	0
303	4	10	1	2	428.9975	29	1	800	2227.7914	 0.0013	 1.9004	 2.7171	 3.4339	 3.8639	0
303	4	11	1	2	597.3665	29	1	800	2227.7914	 0.0013	 3.8838	 4.7004	 5.4171	 6.0155	0
303	4	12	1	2	327.3276	56	1	800	2227.7914	 0.0013	 6.0337	 6.8505	 7.5671	 7.8956	0
303	4	13	1	2	588.7892	56	1	800	2227.7914	 0.0013	 7.9171	 8.7338	 9.4505	10.0402	0
303	4	14	1	2	342.5803	56	1	800	2227.7914	 0.0013	10.0504	10.8671	11.5838	11.9274	0
303	4	15	1	2	387.4067	56	1	800	2227.7914	 0.0013	11.9337	12.7505	13.4671	13.8556	0
303	4	16	1	2	342.1113	56	1	800	2227.7914	 0.0013	13.8671	14.6838	15.4004	15.7436	0
303	4	17	1	2	474.5370	29	1	800	2227.7914	 0.0013	15.7504	16.5672	17.2838	17.7595	0
303	4	18	1	2	490.5389	29	1	800	2227.7914	 0.0013	17.7671	18.5838	19.3004	19.7920	0
303	4	19	1	2	681.1399	29	1	800	2227.7914	 0.0013	19.8004	20.6171	21.3337	22.0159	0
303	4	20	1	2	399.6991	56	1	800	2227.7914	 0.0013	22.0338	22.8505	23.5671	23.9679	0
303	4	21	1	2	521.2793	29	1	800	2227.7914	 0.0013	23.9838	24.8004	25.5171	26.0394	0
303	4	22	1	2	399.3938	56	1	800	2227.7914	 0.0013	26.0504	26.8672	27.5838	27.9842	0
303	4	23	1	2	360.6351	56	1	800	2227.7914	 0.0013	28.0004	28.8172	29.5338	29.8954	0
303	4	24	1	2	580.7282	29	1	800	2227.7914	 0.0013	29.9171	30.7338	31.4505	32.0322	0
303	4	25	1	2	559.1189	29	1	800	2227.7914	 0.0013	32.0504	32.8671	33.5838	34.1439	0
303	4	26	1	2	595.0919	29	1	800	2227.7914	 0.0013	34.1504	34.9671	35.6838	36.2799	0
303	4	27	1	2	468.9036	29	1	800	2227.7914	 0.0013	36.3004	37.1172	37.8337	38.3039	0
303	4	28	1	2	460.8646	29	1	800	2227.7914	 0.0013	38.3171	39.1338	39.8504	40.3123	0
303	4	29	1	2	436.2939	56	1	800	2227.7914	 0.0013	40.3170	41.1338	41.8504	42.2877	0
303	4	30	1	2	516.6284	29	1	800	2227.7914	 0.0013	42.3004	43.1172	43.8338	44.3514	0
303	5	1	1	2	518.3120	29	1	800	2303.8761	 0.0030	 0.0114	 0.8282	 1.5448	 2.0644	0
303	5	2	1	2	412.0605	56	1	800	2303.8761	 0.0030	 2.0781	 2.8947	 3.6115	 4.0246	0
303	5	3	1	2	517.3625	29	0	800	2303.8761	 0.0030	 4.0448	 4.8615	 5.5782	 6.0965	0
303	5	4	1	2	587.2494	56	1	800	2303.8761	 0.0030	 0.0144	 0.8311	 1.5478	 2.1360	0
303	5	5	1	2	509.9401	29	1	800	2303.8761	 0.0030	 2.1477	 2.9644	 3.6811	 4.1920	0
303	5	6	1	2	420.5559	56	1	800	2303.8761	 0.0030	 4.1977	 5.0144	 5.7310	 6.1526	0
303	5	7	1	2	557.6923	29	1	800	2303.8761	 0.0030	 6.1644	 6.9810	 7.6977	 8.2564	0
303	5	8	1	2	530.0103	56	1	800	2303.8761	 0.0030	 8.2643	 9.0810	 9.7978	10.3288	0
303	5	9	1	2	606.4533	29	0	800	2303.8761	 0.0030	10.3477	11.1644	11.8810	12.4886	0
303	5	10	1	2	437.3857	56	1	800	2303.8761	 0.0030	 0.0124	 0.8291	 1.5458	 1.9843	0
303	5	11	1	2	414.7793	29	1	800	2303.8761	 0.0030	 1.9958	 2.8125	 3.5291	 3.9449	0
303	5	12	1	2	480.0200	29	1	800	2303.8761	 0.0030	 3.9624	 4.7791	 5.4959	 5.9769	0
303	5	1	2	2	421.2149	56	1	800	2303.8761	 0.0030	 0.0035	 0.8203	 1.5369	 1.9591	 5.9792
303	5	2	2	2	454.6081	29	1	800	2303.8761	 0.0030	 1.9702	 2.7869	 3.5036	 3.9592	 5.9792
303	5	3	2	2	550.6269	29	1	800	2303.8761	 0.0030	 3.9702	 4.7870	 5.5036	 6.0552	 5.9792
303	5	4	2	2	699.9323	1	0	800	2303.8761	 0.0030	 6.0703	 6.8869	 7.6036	 8.3043	 5.9792
303	5	5	2	2	699.5791	1	0	800	2303.8761	 0.0030	 0.0172	 0.8339	 1.5506	 2.2509	 5.9792
303	5	6	2	2	541.0541	56	1	800	2303.8761	 0.0030	 0.0122	 0.8289	 1.5456	 2.0878	 5.9792
303	5	7	2	2	585.3152	29	1	800	2303.8761	 0.0030	 2.0955	 2.9122	 3.6289	 4.2152	 5.9792
303	5	8	2	2	412.1517	29	1	800	2303.8761	 0.0030	 4.2289	 5.0457	 5.7622	 6.1757	 5.9792
303	5	9	2	2	501.3198	29	1	800	2303.8761	 0.0030	 6.1955	 7.0123	 7.7289	 8.2313	 5.9792
303	5	10	2	2	699.9480	1	0	800	2303.8761	 0.0030	 8.2456	 9.0622	 9.7789	10.4796	 5.9792
303	5	11	2	2	56.6355	29	0	800	2303.8761	 0.0030	 0.0095	 0.8262	 1.5429	 1.6005	 5.9792
303	5	12	2	2	543.1741	56	1	800	2303.8761	 0.0030	 0.0103	 0.8269	 1.5436	 2.0879	 5.9792
303	5	1	3	2	699.5273	1	0	800	2303.8761	 0.0030	 0.0136	 0.8303	 1.5469	 2.2472	 2.0904
303	5	2	3	2	411.2864	56	1	800	2303.8761	 0.0030	 0.0062	 0.8229	 1.5396	 1.9519	 2.0904
303	5	3	3	2	532.7506	29	1	800	2303.8761	 0.0030	 1.9562	 2.7730	 3.4896	 4.0235	 2.0904
303	5	4	3	2	699.5912	1	0	800	2303.8761	 0.0030	 4.0396	 4.8563	 5.5730	 6.2733	 2.0904
303	5	5	3	2	657.9931	56	1	800	2303.8761	 0.0030	 0.0154	 0.8321	 1.5488	 2.2079	 2.0904
303	5	6	3	2	699.7524	1	0	800	2303.8761	 0.0030	 2.2154	 3.0320	 3.7487	 4.4493	 2.0904
303	5	7	3	2	 0.0880	56	0	800	2303.8761	 0.0030	 0.0103	 0.8271	 1.5437	 1.5450	 2.0904
303	5	8	3	2	699.8196	1	0	800	2303.8761	 0.0030	 0.0137	 0.8304	 1.5471	 2.2477	 2.0904
303	5	9	3	2	81.1090	29	1	800	2303.8761	 0.0030	 0.0168	 0.8336	 1.5501	 1.6323	 2.0904
303	5	10	3	2	351.3122	56	0	800	2303.8761	 0.0030	 1.6501	 2.4668	 3.1835	 3.5359	 2.0904
303	5	11	3	2	347.1320	29	1	800	2303.8761	 0.0030	 0.0064	 0.8231	 1.5398	 1.8880	 2.0904
303	5	12	3	2	111.0490	56	0	800	2303.8761	 0.0030	 1.9064	 2.7231	 3.4398	 3.5520	 2.0904
303	5	1	4	2	371.2171	56	1	800	2303.8761	 0.0030	 0.0142	 0.8309	 1.5476	 1.9199	 0.0024
303	5	2	4	2	511.4289	29	1	800	2303.8761	 0.0030	 1.9309	 2.7476	 3.4643	 3.9767	 0.0024
303	5	3	4	2	556.3491	29	1	800	2303.8761	 0.0030	 3.9976	 4.8143	 5.5309	 6.0884	 0.0024
303	5	4	4	2	488.3791	29	1	800	2303.8761	 0.0030	 6.0975	 6.9143	 7.6310	 8.1204	 0.0024
303	5	5	4	2	455.1780	56	0	800	2303.8761	 0.0030	 8.1309	 8.9476	 9.6642	10.1205	 0.0024
303	5	6	4	2	699.7409	1	0	800	2303.8761	 0.0030	 0.0130	 0.8297	 1.5464	 2.2468	 0.0024
303	5	7	4	2	699.7209	1	0	800	2303.8761	 0.0030	 0.0084	 0.8251	 1.5418	 2.2422	 0.0024
303	5	8	4	2	391.6196	56	1	800	2303.8761	 0.0030	 0.0102	 0.8270	 1.5437	 1.9364	 0.0024
303	5	9	4	2	553.8220	56	1	800	2303.8761	 0.0030	 1.9435	 2.7602	 3.4770	 4.0319	 0.0024
303	5	10	4	2	374.2135	56	1	800	2303.8761	 0.0030	 4.0436	 4.8603	 5.5769	 5.9525	 0.0024
303	5	11	4	2	497.5476	56	0	800	2303.8761	 0.0030	 5.9602	 6.7769	 7.4936	 7.9923	 0.0024
303	5	12	4	2	398.4041	56	1	800	2303.8761	 0.0030	 0.0191	 0.8358	 1.5525	 1.9520	 0.0024
303	5	1	5	2	488.7206	56	1	800	2303.8761	 0.0030	 0.0171	 0.8337	 1.5504	 2.0403	 1.9543
303	5	2	5	2	439.5286	56	1	800	2303.8761	 0.0030	 2.0504	 2.8671	 3.5837	 4.0244	 1.9543
303	5	3	5	2	432.0023	56	1	800	2303.8761	 0.0030	 4.0337	 4.8504	 5.5671	 6.0003	 1.9543
303	5	4	5	2	561.3972	29	1	800	2303.8761	 0.0030	 6.0171	 6.8338	 7.5504	 8.1128	 1.9543
303	5	5	5	2	396.8490	56	1	800	2303.8761	 0.0030	 8.1170	 8.9338	 9.6505	10.0484	 1.9543
303	5	6	5	2	574.8707	29	1	800	2303.8761	 0.0030	10.0671	10.8838	11.6004	12.1763	 1.9543
303	5	7	5	2	505.9862	56	1	800	2303.8761	 0.0030	12.1837	13.0004	13.7171	14.2241	 1.9543
303	5	8	5	2	408.6528	56	1	800	2303.8761	 0.0030	14.2337	15.0504	15.7671	16.1768	 1.9543
303	5	9	5	2	458.6955	56	1	800	2303.8761	 0.0030	16.1837	17.0005	17.7171	18.1768	 1.9543
303	5	10	5	2	417.9349	29	1	800	2303.8761	 0.0030	18.1837	19.0004	19.7171	20.1361	 1.9543
303	5	11	5	2	499.5029	29	1	800	2303.8761	 0.0030	20.1504	20.9671	21.6838	22.1843	 1.9543
303	5	12	5	2	409.4319	56	1	800	2303.8761	 0.0030	22.2004	23.0171	23.7338	24.1445	 1.9543
303	6	1	1	2	400.0037	56	1	800	2600.2249	 0.0010	 0.0091	 0.8259	 1.5426	 1.9437	0
303	6	2	1	2	378.8547	56	1	800	2600.2249	 0.0010	 1.9592	 2.7759	 3.4926	 3.8725	0
303	6	3	1	2	388.8069	56	1	800	2600.2249	 0.0010	 3.8925	 4.7092	 5.4260	 5.8158	0
303	6	4	1	2	511.5103	29	1	800	2600.2249	 0.0010	 5.8258	 6.6426	 7.3592	 7.8718	0
303	6	5	1	2	365.1308	56	1	800	2600.2249	 0.0010	 7.8925	 8.7092	 9.4258	 9.7920	0
303	6	6	1	2	480.3716	56	1	800	2600.2249	 0.0010	 9.8092	10.6259	11.3426	11.8241	0
303	6	7	1	2	463.0620	29	1	800	2600.2249	 0.0010	11.8425	12.6592	13.3758	13.8399	0
303	6	8	1	2	430.4910	29	1	800	2600.2249	 0.0010	13.8592	14.6759	15.3927	15.8241	0
303	6	9	1	2	503.1018	29	1	800	2600.2249	 0.0010	15.8426	16.6593	17.3758	17.8800	0
303	6	10	1	2	461.4526	56	1	800	2600.2249	 0.0010	17.8925	18.7093	19.4259	19.8884	0
303	6	11	1	2	516.6551	29	1	800	2600.2249	 0.0010	19.8925	20.7093	21.4259	21.9436	0
303	6	12	1	2	538.1387	29	1	800	2600.2249	 0.0010	21.9592	22.7759	23.4925	24.0319	0
303	6	13	1	2	535.4142	29	1	800	2600.2249	 0.0010	24.0425	24.8592	25.5759	26.1123	0
303	6	14	1	2	419.3396	29	1	800	2600.2249	 0.0010	26.1259	26.9425	27.6592	28.0796	0
303	6	15	1	2	348.6175	56	0	800	2600.2249	 0.0010	28.0925	28.9093	29.6259	29.9756	0
303	6	16	1	2	441.9689	29	1	800	2600.2249	 0.0010	 0.0156	 0.8322	 1.5490	 1.9920	0
303	6	17	1	2	450.7299	29	1	800	2600.2249	 0.0010	 1.9989	 2.8156	 3.5323	 3.9841	0
303	6	18	1	2	491.2745	56	1	800	2600.2249	 0.0010	 3.9989	 4.8156	 5.5322	 6.0245	0
303	6	19	1	2	505.6458	29	1	800	2600.2249	 0.0010	 6.0322	 6.8490	 7.5657	 8.0724	0
303	6	20	1	2	432.1327	29	1	800	2600.2249	 0.0010	 8.0822	 8.8989	 9.6156	10.0487	0
303	6	21	1	2	480.1108	56	0	800	2600.2249	 0.0010	10.0656	10.8822	11.5990	12.0802	0
303	6	22	1	2	540.0110	29	1	800	2600.2249	 0.0010	 0.0136	 0.8303	 1.5470	 2.0880	0
303	6	23	1	2	424.7355	56	1	800	2600.2249	 0.0010	 2.0968	 2.9136	 3.6303	 4.0562	0
303	6	24	1	2	370.2631	56	1	800	2600.2249	 0.0010	 4.0635	 4.8802	 5.5969	 5.9683	0
303	6	25	1	2	333.8802	56	1	800	2600.2249	 0.0010	 5.9802	 6.7969	 7.5136	 7.8485	0
303	6	26	1	2	386.3317	56	1	800	2600.2249	 0.0010	 7.8635	 8.6803	 9.3970	 9.7844	0
303	6	27	1	2	492.7437	29	1	800	2600.2249	 0.0010	 9.7969	10.6136	11.3302	11.8238	0
303	6	28	1	2	699.5606	1	0	800	2600.2249	 0.0010	11.8302	12.6469	13.3636	14.0639	0
303	6	29	1	2	383.2065	56	1	800	2600.2249	 0.0010	 0.0097	 0.8264	 1.5431	 1.9273	0
303	6	30	1	2	410.8196	56	1	800	2600.2249	 0.0010	 1.9431	 2.7598	 3.4764	 3.8882	0
303	7	1	1	3	465.9163	29	1	800	2692.5081	 0.0007	 0.0066	 0.8233	 1.5400	 2.0069	0
303	7	2	1	3	377.4136	56	1	800	2692.5081	 0.0007	 2.0233	 2.8399	 3.5567	 3.9352	0
303	7	3	1	3	699.5184	1	0	800	2692.5081	 0.0007	 3.9399	 4.7567	 5.4733	 6.1735	0
303	7	4	1	3	570.1726	56	1	800	2692.5081	 0.0007	 0.0077	 0.8244	 1.5411	 2.1124	0
303	7	5	1	3	430.0995	29	0	800	2692.5081	 0.0007	 2.1244	 2.9411	 3.6577	 4.0888	0
303	7	6	1	3	699.6571	1	0	800	2692.5081	 0.0007	 0.0182	 0.8350	 1.5516	 2.2520	0
303	7	7	1	3	620.1034	29	1	800	2692.5081	 0.0007	 0.0056	 0.8223	 1.5390	 2.1602	0
303	7	8	1	3	493.5412	29	1	800	2692.5081	 0.0007	 2.1723	 2.9890	 3.7057	 4.2003	0
303	7	9	1	3	699.8751	1	0	800	2692.5081	 0.0007	 4.2056	 5.0223	 5.7390	 6.4396	0
303	7	10	1	3	699.8867	1	0	800	2692.5081	 0.0007	 0.0084	 0.8251	 1.5417	 2.2423	0
303	7	11	1	3	350.0364	56	1	800	2692.5081	 0.0007	 0.0118	 0.8285	 1.5451	 1.8962	0
303	7	12	1	3	305.8901	56	1	800	2692.5081	 0.0007	 1.9118	 2.7286	 3.4452	 3.7521	0
303	7	1	2	3	615.4466	29	1	800	2692.5081	 0.0007	 0.0104	 0.8272	 1.5438	 2.1603	 3.7545
303	7	2	2	3	456.7623	56	1	800	2692.5081	 0.0007	 2.1771	 2.9938	 3.7105	 4.1682	 3.7545
303	7	3	2	3	520.1487	29	1	800	2692.5081	 0.0007	 4.1771	 4.9937	 5.7106	 6.2319	 3.7545
303	7	4	2	3	341.6821	56	1	800	2692.5081	 0.0007	 6.2438	 7.0606	 7.7772	 8.1199	 3.7545
303	7	5	2	3	514.7141	29	0	800	2692.5081	 0.0007	 8.1271	 8.9439	 9.6604	10.1762	 3.7545
303	7	6	2	3	699.5584	1	0	800	2692.5081	 0.0007	 0.0097	 0.8265	 1.5431	 2.2434	 3.7545
303	7	7	2	3	667.2875	29	1	800	2692.5081	 0.0007	 0.0138	 0.8305	 1.5472	 2.2154	 3.7545
303	7	8	2	3	699.8071	1	0	800	2692.5081	 0.0007	 2.2305	 3.0472	 3.7639	 4.4645	 3.7545
303	7	9	2	3	699.5484	1	0	800	2692.5081	 0.0007	 0.0106	 0.8274	 1.5440	 2.2443	 3.7545
303	7	10	2	3	699.8512	1	0	800	2692.5081	 0.0007	 0.0058	 0.8226	 1.5392	 2.2398	 3.7545
303	7	11	2	3	 0.0893	29	0	800	2692.5081	 0.0007	 0.0150	 0.8317	 1.5483	 1.5498	 3.7545
303	7	12	2	3	155.5509	29	0	800	2692.5081	 0.0007	 0.0143	 0.8308	 1.5475	 1.7040	 3.7545
303	7	1	3	3	626.9574	29	1	800	2692.5081	 0.0007	 0.0062	 0.8229	 1.5397	 2.1677	 0.0024
303	7	2	3	3	524.7037	29	1	800	2692.5081	 0.0007	 2.1729	 2.9896	 3.7063	 4.2320	 0.0024
303	7	3	3	3	699.8161	1	0	800	2692.5081	 0.0007	 4.2396	 5.0563	 5.7730	 6.4735	 0.0024
303	7	4	3	3	699.6557	1	0	800	2692.5081	 0.0007	 0.0110	 0.8277	 1.5444	 2.2448	 0.0024
303	7	5	3	3	464.2388	56	1	800	2692.5081	 0.0007	 0.0177	 0.8343	 1.5510	 2.0162	 0.0024
303	7	6	3	3	327.6041	56	1	800	2692.5081	 0.0007	 2.0343	 2.8510	 3.5677	 3.8963	 0.0024
303	7	7	3	3	380.7229	56	1	800	2692.5081	 0.0007	 3.9009	 4.7176	 5.4343	 5.8161	 0.0024
303	7	8	3	3	399.6219	56	0	800	2692.5081	 0.0007	 5.8343	 6.6510	 7.3677	 7.7684	 0.0024
303	7	9	3	3	421.9137	56	1	800	2692.5081	 0.0007	 0.0195	 0.8362	 1.5530	 1.9759	 0.0024
303	7	10	3	3	624.4013	29	1	800	2692.5081	 0.0007	 1.9863	 2.8029	 3.5195	 4.1450	 0.0024
303	7	11	3	3	552.9599	56	0	800	2692.5081	 0.0007	 4.1528	 4.9696	 5.6862	 6.2401	 0.0024
303	7	12	3	3	639.4560	29	1	800	2692.5081	 0.0007	 0.0093	 0.8261	 1.5427	 2.1833	 0.0024
303	7	1	4	3	575.4061	29	1	800	2692.5081	 0.0007	 0.0180	 0.8347	 1.5513	 2.1278	 2.1857
303	7	2	4	3	523.1141	29	1	800	2692.5081	 0.0007	 2.1347	 2.9513	 3.6680	 4.1922	 2.1857
303	7	3	4	3	448.1945	56	1	800	2692.5081	 0.0007	 4.2013	 5.0179	 5.7347	 6.1840	 2.1857
303	7	4	4	3	464.7624	56	1	800	2692.5081	 0.0007	 6.2013	 7.0180	 7.7347	 8.2005	 2.1857
303	7	5	4	3	591.4905	56	1	800	2692.5081	 0.0007	 8.2180	 9.0348	 9.7514	10.3439	 2.1857
303	7	6	4	3	602.2322	29	1	800	2692.5081	 0.0007	10.3513	11.1681	11.8846	12.4879	 2.1857
303	7	7	4	3	492.3218	29	1	800	2692.5081	 0.0007	12.5013	13.3181	14.0347	14.5280	 2.1857
303	7	8	4	3	499.3287	56	1	800	2692.5081	 0.0007	14.5346	15.3514	16.0680	16.5683	 2.1857
303	7	9	4	3	505.0504	29	1	800	2692.5081	 0.0007	16.5846	17.4013	18.1180	18.6242	 2.1857
303	7	10	4	3	519.0540	29	1	800	2692.5081	 0.0007	18.6346	19.4514	20.1679	20.6881	 2.1857
303	7	11	4	3	436.4034	56	1	800	2692.5081	 0.0007	20.7013	21.5180	22.2347	22.6722	 2.1857
303	7	12	4	3	540.8979	29	1	800	2692.5081	 0.0007	22.6846	23.5014	24.2180	24.7600	 2.1857
303	8	1	1	3	454.0354	56	1	800	2888.1913	 0.0007	 0.0030	 0.8198	 1.5365	 1.9915	0
303	8	2	1	3	350.1550	56	1	800	2888.1913	 0.0007	 2.0030	 2.8198	 3.5364	 3.8876	0
303	8	3	1	3	442.1059	56	1	800	2888.1913	 0.0007	 3.9031	 4.7197	 5.4365	 5.8796	0
303	8	4	1	3	538.8788	29	1	800	2888.1913	 0.0007	 5.8863	 6.7032	 7.4197	 7.9596	0
303	8	5	1	3	407.4745	29	0	800	2888.1913	 0.0007	 7.9697	 8.7864	 9.5031	 9.9116	0
303	8	6	1	3	599.4931	29	1	800	2888.1913	 0.0007	 0.0095	 0.8262	 1.5429	 2.1435	0
303	8	7	1	3	529.4060	29	1	800	2888.1913	 0.0007	 2.1596	 2.9763	 3.6930	 4.2235	0
303	8	8	1	3	446.4782	56	1	800	2888.1913	 0.0007	 4.2429	 5.0596	 5.7763	 6.2237	0
303	8	9	1	3	438.0555	29	1	800	2888.1913	 0.0007	 6.2429	 7.0596	 7.7762	 8.2153	0
303	8	10	1	3	366.8413	56	1	800	2888.1913	 0.0007	 8.2262	 9.0430	 9.7595	10.1274	0
303	8	11	1	3	450.2075	29	1	800	2888.1913	 0.0007	10.1429	10.9596	11.6763	12.1275	0
303	8	12	1	3	401.8804	56	1	800	2888.1913	 0.0007	12.1429	12.9596	13.6763	14.0792	0
303	8	13	1	3	396.1700	29	1	800	2888.1913	 0.0007	14.0929	14.9095	15.6262	16.0234	0
303	8	14	1	3	534.3136	29	1	800	2888.1913	 0.0007	16.0429	16.8596	17.5762	18.1115	0
303	8	15	1	3	371.3168	56	1	800	2888.1913	 0.0007	18.1262	18.9429	19.6596	20.0319	0
303	8	16	1	3	398.7684	56	1	800	2888.1913	 0.0007	20.0428	20.8596	21.5762	21.9760	0
303	8	17	1	3	456.2325	29	1	800	2888.1913	 0.0007	21.9929	22.8096	23.5263	23.9836	0
303	8	18	1	3	512.3204	29	1	800	2888.1913	 0.0007	23.9928	24.8096	25.5263	26.0397	0
303	8	19	1	3	614.0092	29	1	800	2888.1913	 0.0007	26.0595	26.8763	27.5929	28.2079	0
303	8	20	1	3	535.3379	29	1	800	2888.1913	 0.0007	28.2262	29.0429	29.7597	30.2960	0
303	8	21	1	3	411.3243	29	1	800	2888.1913	 0.0007	30.3095	31.1263	31.8429	32.2552	0
303	8	22	1	3	397.7793	56	1	800	2888.1913	 0.0007	32.2595	33.0763	33.7929	34.1917	0
303	8	23	1	3	431.9924	56	1	800	2888.1913	 0.0007	34.2096	35.0263	35.7430	36.1760	0
303	8	24	1	3	343.9837	56	1	800	2888.1913	 0.0007	36.1929	37.0095	37.7262	38.0712	0
303	8	25	1	3	452.6582	29	1	800	2888.1913	 0.0007	38.0762	38.8929	39.6096	40.0633	0
303	8	26	1	3	405.6166	56	1	800	2888.1913	 0.0007	40.0762	40.8929	41.6096	42.0164	0
303	8	27	1	3	399.3373	29	1	800	2888.1913	 0.0007	42.0262	42.8429	43.5595	43.9598	0
303	8	28	1	3	568.8239	29	1	800	2888.1913	 0.0007	43.9762	44.7930	45.5097	46.0795	0
303	8	29	1	3	500.6192	56	1	800	2888.1913	 0.0007	46.0929	46.9096	47.6263	48.1280	0
303	8	30	1	3	354.0353	56	1	800	2888.1913	 0.0007	48.1429	48.9596	49.6763	50.0314	0
303	9	1	1	3	700.0156	1	0	800	2969.0582	 0.0008	 0.0147	 0.8314	 1.5479	 2.2487	0
303	9	2	1	3	687.9435	56	1	800	2969.0582	 0.0008	 0.0102	 0.8269	 1.5435	 2.2324	0
303	9	3	1	3	509.9902	56	0	800	2969.0582	 0.0008	 2.2435	 3.0602	 3.7768	 4.2880	0
303	9	4	1	3	623.9216	29	1	800	2969.0582	 0.0008	 0.0173	 0.8340	 1.5506	 2.1755	0
303	9	5	1	3	699.6315	1	0	800	2969.0582	 0.0008	 2.2006	 3.0173	 3.7340	 4.4343	0
303	9	6	1	3	566.0382	56	1	800	2969.0582	 0.0008	 0.0114	 0.8281	 1.5447	 2.1118	0
303	9	7	1	3	699.8418	1	0	800	2969.0582	 0.0008	 2.1281	 2.9448	 3.6615	 4.3620	0
303	9	8	1	3	177.9864	56	0	800	2969.0582	 0.0008	 0.0239	 0.8405	 1.5573	 1.7362	0
303	9	9	1	3	 0.0862	29	1	800	2969.0582	 0.0008	 0.0120	 0.8288	 1.5455	 1.5468	0
303	9	10	1	3	503.2391	29	1	800	2969.0582	 0.0008	 1.5621	 2.3788	 3.0955	 3.5997	0
303	9	11	1	3	38.0829	29	1	800	2969.0582	 0.0008	 3.6122	 4.4287	 5.1454	 5.1845	0
303	9	12	1	3	221.8871	56	1	800	2969.0582	 0.0008	 5.1954	 6.0121	 6.7288	 6.9517	0
303	9	1	2	3	570.6019	29	1	800	2969.0582	 0.0008	 0.0065	 0.8232	 1.5399	 2.1115	 6.9542
303	9	2	2	3	630.8998	29	1	800	2969.0582	 0.0008	 2.1233	 2.9399	 3.6565	 4.2884	 6.9542
303	9	3	2	3	695.3365	56	0	800	2969.0582	 0.0008	 4.3066	 5.1232	 5.8399	 6.5361	 6.9542
303	9	4	2	3	427.8822	56	1	800	2969.0582	 0.0008	 0.0217	 0.8383	 1.5549	 1.9837	 6.9542
303	9	5	2	3	699.8373	1	0	800	2969.0582	 0.0008	 2.0049	 2.8216	 3.5383	 4.2388	 6.9542
303	9	6	2	3	570.2085	29	1	800	2969.0582	 0.0008	 0.0235	 0.8401	 1.5568	 2.1281	 6.9542
303	9	7	2	3	518.0185	56	1	800	2969.0582	 0.0008	 2.1401	 2.9568	 3.6734	 4.1923	 6.9542
303	9	8	2	3	578.5436	56	1	800	2969.0582	 0.0008	 4.2069	 5.0234	 5.7401	 6.3196	 6.9542
303	9	9	2	3	446.0852	56	1	800	2969.0582	 0.0008	 6.3402	 7.1567	 7.8735	 8.3205	 6.9542
303	9	10	2	3	454.2006	56	1	800	2969.0582	 0.0008	 8.3402	 9.1568	 9.8734	10.3285	 6.9542
303	9	11	2	3	429.6720	29	1	800	2969.0582	 0.0008	10.3401	11.1568	11.8735	12.3042	 6.9542
303	9	12	2	3	478.0027	29	1	800	2969.0582	 0.0008	12.3235	13.1401	13.8567	14.3357	 6.9542
303	9	1	3	3	466.7446	29	1	800	2969.0582	 0.0008	 0.0065	 0.8232	 1.5399	 2.0077	14.3383
303	9	2	3	3	418.2231	56	1	800	2969.0582	 0.0008	 2.0232	 2.8400	 3.5566	 3.9758	14.3383
303	9	3	3	3	379.5768	56	1	800	2969.0582	 0.0008	 3.9900	 4.8066	 5.5232	 5.9038	14.3383
303	9	4	3	3	526.7900	29	1	800	2969.0582	 0.0008	 5.9233	 6.7399	 7.4565	 7.9843	14.3383
303	9	5	3	3	531.5577	56	1	800	2969.0582	 0.0008	 8.0066	 8.8232	 9.5399	10.0726	14.3383
303	9	6	3	3	359.4654	56	1	800	2969.0582	 0.0008	10.0899	10.9067	11.6232	11.9837	14.3383
303	9	7	3	3	451.2186	56	1	800	2969.0582	 0.0008	11.9899	12.8066	13.5232	13.9755	14.3383
303	9	8	3	3	403.7191	56	1	800	2969.0582	 0.0008	13.9900	14.8066	15.5233	15.9281	14.3383
303	9	9	3	3	445.4227	29	1	800	2969.0582	 0.0008	15.9400	16.7566	17.4732	17.9198	14.3383
303	9	10	3	3	445.5987	56	0	800	2969.0582	 0.0008	17.9400	18.7566	19.4732	19.9199	14.3383
303	9	11	3	3	459.3806	56	1	800	2969.0582	 0.0008	 0.0138	 0.8304	 1.5471	 2.0075	14.3383
303	9	12	3	3	443.2506	29	1	800	2969.0582	 0.0008	 2.0137	 2.8305	 3.5471	 3.9915	14.3383
303	9	1	4	3	455.9497	29	1	800	2969.0582	 0.0008	 0.0093	 0.8259	 1.5426	 1.9996	 3.9940
303	9	2	4	3	699.6088	1	0	800	2969.0582	 0.0008	 2.0093	 2.8260	 3.5427	 4.2430	 3.9940
303	9	3	4	3	 0.0886	56	1	800	2969.0582	 0.0008	 0.0194	 0.8359	 1.5526	 1.5539	 3.9940
303	9	4	4	3	96.1368	56	0	800	2969.0582	 0.0008	 1.5693	 2.3859	 3.1026	 3.1997	 3.9940
303	9	5	4	3	 3.3188	29	0	800	2969.0582	 0.0008	 0.0225	 0.8392	 1.5558	 1.5601	 3.9940
303	9	6	4	3	 0.0885	56	0	800	2969.0582	 0.0008	 0.0162	 0.8327	 1.5495	 1.5507	 3.9940
303	9	7	4	3	153.0521	29	0	800	2969.0582	 0.0008	 0.0083	 0.8250	 1.5417	 1.6958	 3.9940
303	9	8	4	3	 0.0892	56	0	800	2969.0582	 0.0008	 0.0123	 0.8290	 1.5456	 1.5468	 3.9940
303	9	9	4	3	16.5997	56	0	800	2969.0582	 0.0008	 0.0164	 0.8330	 1.5497	 1.5674	 3.9940
303	9	10	4	3	103.3770	29	0	800	2969.0582	 0.0008	 0.0098	 0.8265	 1.5432	 1.6476	 3.9940
303	9	11	4	3	461.8178	56	0	800	2969.0582	 0.0008	 0.0110	 0.8276	 1.5443	 2.0072	 3.9940
303	9	12	4	3	638.7716	56	0	800	2969.0582	 0.0008	 0.0105	 0.8272	 1.5438	 2.1836	 3.9940
303	9	1	5	3	544.1216	29	1	800	2969.0582	 0.0008	 0.0090	 0.8256	 1.5424	 2.0877	 0.0025
303	9	2	5	3	420.7223	56	1	800	2969.0582	 0.0008	 2.0923	 2.9090	 3.6257	 4.0475	 0.0025
303	9	3	5	3	686.7163	56	0	800	2969.0582	 0.0008	 4.0590	 4.8757	 5.5924	 6.2801	 0.0025
303	9	4	5	3	605.6352	29	1	800	2969.0582	 0.0008	 0.0119	 0.8286	 1.5453	 2.1520	 0.0025
303	9	5	5	3	583.3803	29	1	800	2969.0582	 0.0008	 2.1619	 2.9786	 3.6952	 4.2797	 0.0025
303	9	6	5	3	433.8829	56	1	800	2969.0582	 0.0008	 4.2952	 5.1119	 5.8286	 6.2635	 0.0025
303	9	7	5	3	554.4727	29	1	800	2969.0582	 0.0008	 6.2785	 7.0952	 7.8120	 8.3680	 0.0025
303	9	8	5	3	430.7727	29	1	800	2969.0582	 0.0008	 8.3785	 9.1953	 9.9118	10.3436	 0.0025
303	9	9	5	3	559.7906	29	1	800	2969.0582	 0.0008	10.3619	11.1786	11.8952	12.4560	 0.0025
303	9	10	5	3	627.7676	56	1	800	2969.0582	 0.0008	12.4618	13.2786	13.9953	14.6241	 0.0025
303	9	11	5	3	436.6078	56	1	800	2969.0582	 0.0008	14.6285	15.4452	16.1619	16.5994	 0.0025
303	9	12	5	3	461.4387	29	1	800	2969.0582	 0.0008	16.6119	17.4286	18.1452	18.6077	 0.0025
303	9	1	6	3	414.8323	29	1	800	2969.0582	 0.0008	 0.0105	 0.8272	 1.5439	 1.9598	18.6102
303	9	2	6	3	400.1368	29	1	800	2969.0582	 0.0008	 1.9772	 2.7940	 3.5105	 3.9118	18.6102
303	9	3	6	3	338.3597	56	1	800	2969.0582	 0.0008	 3.9272	 4.7438	 5.4606	 5.8001	18.6102
303	9	4	6	3	439.3888	29	1	800	2969.0582	 0.0008	 5.8105	 6.6273	 7.3439	 7.7843	18.6102
303	9	5	6	3	583.6748	29	1	800	2969.0582	 0.0008	 7.7939	 8.6106	 9.3273	 9.9120	18.6102
303	9	6	6	3	426.0686	29	1	800	2969.0582	 0.0008	 9.9272	10.7438	11.4606	11.8878	18.6102
303	9	7	6	3	531.4053	56	1	800	2969.0582	 0.0008	11.8938	12.7106	13.4273	13.9598	18.6102
303	9	8	6	3	328.2815	56	1	800	2969.0582	 0.0008	13.9772	14.7939	15.5106	15.8400	18.6102
303	9	9	6	3	429.3619	29	1	800	2969.0582	 0.0008	15.8605	16.6773	17.3940	17.8243	18.6102
303	9	10	6	3	558.0869	29	1	800	2969.0582	 0.0008	17.8439	18.6605	19.3773	19.9363	18.6102
303	9	11	6	3	546.0109	29	1	800	2969.0582	 0.0008	19.9439	20.7606	21.4773	22.0244	18.6102
303	9	12	6	3	573.5291	29	1	800	2969.0582	 0.0008	22.0439	22.8606	23.5772	24.1518	18.6102
303	10	1	1	4	526.1120	29	1	800	3251.1250	 0.0020	 0.0102	 0.8269	 1.5435	 2.0706	0
303	10	2	1	4	354.5429	56	1	800	3251.1250	 0.0020	 2.0768	 2.8936	 3.6103	 3.9657	0
303	10	3	1	4	398.7367	56	1	800	3251.1250	 0.0020	 3.9769	 4.7936	 5.5102	 5.9099	0
303	10	4	1	4	401.3837	56	1	800	3251.1250	 0.0020	 5.9269	 6.7436	 7.4602	 7.8626	0
303	10	5	1	4	435.1205	29	1	800	3251.1250	 0.0020	 7.8769	 8.6935	 9.4103	 9.8464	0
303	10	6	1	4	411.4118	29	1	800	3251.1250	 0.0020	 9.8602	10.6770	11.3936	11.8061	0
303	10	7	1	4	428.8913	29	1	800	3251.1250	 0.0020	11.8269	12.6436	13.3603	13.7902	0
303	10	8	1	4	301.4871	56	1	800	3251.1250	 0.0020	13.8102	14.6270	15.3435	15.6461	0
303	10	9	1	4	387.9717	56	1	800	3251.1250	 0.0020	15.6602	16.4769	17.1936	17.5825	0
303	10	10	1	4	525.9827	56	1	800	3251.1250	 0.0020	17.5935	18.4103	19.1269	19.6540	0
303	10	11	1	4	579.7310	56	0	800	3251.1250	 0.0020	19.6602	20.4769	21.1936	21.7744	0
303	10	12	1	4	699.5733	1	0	800	3251.1250	 0.0020	 0.0059	 0.8227	 1.5393	 2.2396	0
303	10	13	1	4	526.5896	56	1	800	3251.1250	 0.0020	 0.0183	 0.8350	 1.5516	 2.0793	0
303	10	14	1	4	572.8738	29	1	800	3251.1250	 0.0020	 2.0849	 2.9017	 3.6183	 4.1921	0
303	10	15	1	4	447.7577	29	1	800	3251.1250	 0.0020	 4.2016	 5.0183	 5.7350	 6.1838	0
303	10	16	1	4	383.4809	56	1	800	3251.1250	 0.0020	 6.2016	 7.0183	 7.7350	 8.1195	0
303	10	17	1	4	570.5716	29	1	800	3251.1250	 0.0020	 8.1349	 8.9516	 9.6683	10.2399	0
303	10	18	1	4	597.6898	29	1	800	3251.1250	 0.0020	10.2517	11.0684	11.7849	12.3836	0
303	10	19	1	4	391.7661	56	1	800	3251.1250	 0.0020	12.4016	13.2183	13.9350	14.3278	0
303	10	20	1	4	442.0043	29	1	800	3251.1250	 0.0020	14.3349	15.1517	15.8684	16.3114	0
303	10	21	1	4	394.7979	29	1	800	3251.1250	 0.0020	16.3182	17.1350	17.8516	18.2474	0
303	10	22	1	4	492.8069	56	1	800	3251.1250	 0.0020	18.2683	19.0850	19.8016	20.2954	0
303	10	23	1	4	403.3341	56	1	800	3251.1250	 0.0020	20.3016	21.1183	21.8349	22.2394	0
303	10	24	1	4	421.4677	29	1	800	3251.1250	 0.0020	22.2519	23.0683	23.7849	24.2074	0
303	10	25	1	4	462.7159	29	1	800	3251.1250	 0.0020	24.2183	25.0349	25.7517	26.2154	0
303	10	26	1	4	405.9979	29	1	800	3251.1250	 0.0020	26.2350	27.0517	27.7683	28.1753	0
303	10	27	1	4	472.3236	56	1	800	3251.1250	 0.0020	28.1850	29.0016	29.7183	30.1917	0
303	10	28	1	4	359.2621	56	1	800	3251.1250	 0.0020	30.2016	31.0183	31.7350	32.0960	0
303	10	29	1	4	458.6342	29	1	800	3251.1250	 0.0020	32.1183	32.9350	33.6517	34.1114	0
303	10	30	1	4	410.5768	56	1	800	3251.1250	 0.0020	34.1182	34.9351	35.6516	36.0632	0
303	11	1	1	4	498.1228	56	1	800	3337.2421	 0.0019	 0.0148	 0.8314	 1.5481	 2.0473	0
303	11	2	1	4	440.4358	29	1	800	3337.2421	 0.0019	 2.0648	 2.8815	 3.5981	 4.0395	0
303	11	3	1	4	408.7754	56	1	800	3337.2421	 0.0019	 4.0481	 4.8648	 5.5814	 5.9912	0
303	11	4	1	4	482.7236	29	0	800	3337.2421	 0.0019	 5.9981	 6.8147	 7.5315	 8.0153	0
303	11	5	1	4	527.4946	29	1	800	3337.2421	 0.0019	 0.0189	 0.8356	 1.5522	 2.0807	0
303	11	6	1	4	419.2775	56	1	800	3337.2421	 0.0019	 2.1022	 2.9188	 3.6356	 4.0558	0
303	11	7	1	4	437.1569	56	1	800	3337.2421	 0.0019	 4.0689	 4.8855	 5.6022	 6.0403	0
303	11	8	1	4	453.6854	29	1	800	3337.2421	 0.0019	 6.0522	 6.8689	 7.5855	 8.0403	0
303	11	9	1	4	453.6022	29	1	800	3337.2421	 0.0019	 8.0522	 8.8689	 9.5856	10.0402	0
303	11	10	1	4	421.9540	56	1	800	3337.2421	 0.0019	10.0522	10.8690	11.5856	12.0085	0
303	11	11	1	4	487.4739	29	1	800	3337.2421	 0.0019	12.0188	12.8356	13.5521	14.0406	0
303	11	12	1	4	485.3434	56	1	800	3337.2421	 0.0019	14.0522	14.8690	15.5856	16.0720	0
303	11	1	2	4	333.3643	56	1	800	3337.2421	 0.0019	 0.0118	 0.8285	 1.5452	 1.8796	16.0745
303	11	2	2	4	594.0563	29	0	800	3337.2421	 0.0019	 1.8951	 2.7118	 3.4285	 4.0236	16.0745
303	11	3	2	4	500.6235	29	1	800	3337.2421	 0.0019	 0.0131	 0.8299	 1.5466	 2.0481	16.0745
303	11	4	2	4	522.3451	29	1	800	3337.2421	 0.0019	 2.0631	 2.8798	 3.5965	 4.1202	16.0745
303	11	5	2	4	407.7801	56	1	800	3337.2421	 0.0019	 4.1298	 4.9465	 5.6631	 6.0719	16.0745
303	11	6	2	4	345.2500	56	0	800	3337.2421	 0.0019	 6.0798	 6.8965	 7.6132	 7.9594	16.0745
303	11	7	2	4	699.5168	1	0	800	3337.2421	 0.0019	 0.0213	 0.8380	 1.5546	 2.2548	16.0745
303	11	8	2	4	614.0997	29	1	800	3337.2421	 0.0019	 0.0113	 0.8280	 1.5446	 2.1597	16.0745
303	11	9	2	4	415.4771	56	0	800	3337.2421	 0.0019	 2.1779	 2.9946	 3.7112	 4.1278	16.0745
303	11	10	2	4	35.8317	29	1	800	3337.2421	 0.0019	 0.0215	 0.8382	 1.5549	 1.5919	16.0745
303	11	11	2	4	699.7166	1	0	800	3337.2421	 0.0019	 1.6048	 2.4215	 3.1382	 3.8387	16.0745
303	11	12	2	4	33.9040	56	0	800	3337.2421	 0.0019	 0.0069	 0.8237	 1.5404	 1.5753	16.0745
303	11	1	3	4	525.2184	29	1	800	3337.2421	 0.0019	 0.0124	 0.8291	 1.5457	 2.0719	 0.0025
303	11	2	3	4	402.9923	56	1	800	3337.2421	 0.0019	 2.0790	 2.8958	 3.6124	 4.0167	 0.0025
303	11	3	3	4	644.4167	29	1	800	3337.2421	 0.0019	 4.0291	 4.8458	 5.5624	 6.2078	 0.0025
303	11	4	3	4	557.0323	29	0	800	3337.2421	 0.0019	 6.2123	 7.0291	 7.7458	 8.3039	 0.0025
303	11	5	3	4	480.0624	56	1	800	3337.2421	 0.0019	 0.0101	 0.8268	 1.5435	 2.0246	 0.0025
303	11	6	3	4	478.5526	29	1	800	3337.2421	 0.0019	 2.0435	 2.8602	 3.5768	 4.0564	 0.0025
303	11	7	3	4	452.8690	29	1	800	3337.2421	 0.0019	 4.0768	 4.8935	 5.6101	 6.0640	 0.0025
303	11	8	3	4	492.5395	56	1	800	3337.2421	 0.0019	 6.0768	 6.8935	 7.6102	 8.1037	 0.0025
303	11	9	3	4	419.2740	29	1	800	3337.2421	 0.0019	 8.1101	 8.9269	 9.6435	10.0640	 0.0025
303	11	10	3	4	573.1641	56	1	800	3337.2421	 0.0019	10.0769	10.8935	11.6101	12.1843	 0.0025
303	11	11	3	4	456.6348	29	1	800	3337.2421	 0.0019	12.1934	13.0102	13.7268	14.1844	 0.0025
303	11	12	3	4	624.1659	56	1	800	3337.2421	 0.0019	14.1934	15.0102	15.7269	16.3522	 0.0025
303	11	1	4	4	365.8841	56	1	800	3337.2421	 0.0019	 0.0117	 0.8285	 1.5451	 1.9120	16.3546
303	11	2	4	4	329.5638	56	1	800	3337.2421	 0.0019	 1.9284	 2.7451	 3.4618	 3.7924	16.3546
303	11	3	4	4	430.2040	56	1	800	3337.2421	 0.0019	 3.8117	 4.6284	 5.3450	 5.7763	16.3546
303	11	4	4	4	398.8380	56	1	800	3337.2421	 0.0019	 5.7950	 6.6118	 7.3284	 7.7283	16.3546
303	11	5	4	4	433.1867	29	1	800	3337.2421	 0.0019	 7.7450	 8.5617	 9.2784	 9.7126	16.3546
303	11	6	4	4	361.9775	56	1	800	3337.2421	 0.0019	 9.7284	10.5451	11.2617	11.6247	16.3546
303	11	7	4	4	421.0162	56	1	800	3337.2421	 0.0019	11.6450	12.4618	13.1784	13.6005	16.3546
303	11	8	4	4	437.8611	29	1	800	3337.2421	 0.0019	13.6117	14.4283	15.1451	15.5840	16.3546
303	11	9	4	4	462.5396	56	1	800	3337.2421	 0.0019	15.5950	16.4117	17.1284	17.5919	16.3546
303	11	10	4	4	350.3626	56	1	800	3337.2421	 0.0019	17.6117	18.4284	19.1450	19.4964	16.3546
303	11	11	4	4	513.9955	29	1	800	3337.2421	 0.0019	19.5117	20.3285	21.0451	21.5602	16.3546
303	11	12	4	4	432.0376	29	1	800	3337.2421	 0.0019	21.5784	22.3951	23.1117	23.5446	16.3546
303	12	1	1	4	399.3375	56	1	800	3553.2584	 0.0019	 0.0096	 0.8264	 1.5429	 1.9432	0
303	12	2	1	4	537.2224	29	1	800	3553.2584	 0.0019	 1.9596	 2.7763	 3.4930	 4.0313	0
303	12	3	1	4	485.9862	56	1	800	3553.2584	 0.0019	 4.0429	 4.8596	 5.5762	 6.0632	0
303	12	4	1	4	444.6148	29	1	800	3553.2584	 0.0019	 6.0763	 6.8930	 7.6096	 8.0554	0
303	12	5	1	4	388.7334	56	1	800	3553.2584	 0.0019	 8.0763	 8.8930	 9.6096	 9.9994	0
303	12	6	1	4	431.8598	56	1	800	3553.2584	 0.0019	10.0095	10.8263	11.5430	11.9758	0
303	12	7	1	4	440.4094	56	1	800	3553.2584	 0.0019	11.9929	12.8096	13.5264	13.9678	0
303	12	8	1	4	481.4882	29	1	800	3553.2584	 0.0019	13.9762	14.7930	15.5096	15.9921	0
303	12	9	1	4	423.3243	29	1	800	3553.2584	 0.0019	16.0096	16.8263	17.5430	17.9673	0
303	12	10	1	4	440.8030	29	1	800	3553.2584	 0.0019	17.9762	18.7930	19.5097	19.9516	0
303	12	11	1	4	401.2136	56	1	800	3553.2584	 0.0019	19.9595	20.7763	21.4930	21.8951	0
303	12	12	1	4	483.2633	56	1	800	3553.2584	 0.0019	21.9096	22.7263	23.4430	23.9275	0
303	12	13	1	4	698.5830	29	1	800	3553.2584	 0.0019	23.9429	24.7596	25.4763	26.1759	0
303	12	14	1	4	699.6099	1	0	800	3553.2584	 0.0019	26.1929	27.0097	27.7263	28.4266	0
303	12	15	1	4	699.7071	1	0	800	3553.2584	 0.0019	 0.0211	 0.8378	 1.5545	 2.2549	0
303	12	16	1	4	699.6218	1	0	800	3553.2584	 0.0019	 0.0071	 0.8238	 1.5405	 2.2408	0
303	12	17	1	4	540.0722	29	1	800	3553.2584	 0.0019	 0.0212	 0.8379	 1.5546	 2.0957	0
303	12	18	1	4	497.3460	56	0	800	3553.2584	 0.0019	 2.1045	 2.9213	 3.6379	 4.1362	0
303	12	19	1	4	472.6542	56	1	800	3553.2584	 0.0019	 0.0165	 0.8333	 1.5500	 2.0236	0
303	12	20	1	4	656.7626	29	1	800	3553.2584	 0.0019	 2.0332	 2.8499	 3.5666	 4.2244	0
303	12	21	1	4	488.0708	29	1	800	3553.2584	 0.0019	 4.2332	 5.0500	 5.7667	 6.2558	0
303	12	22	1	4	671.3297	56	1	800	3553.2584	 0.0019	 6.2665	 7.0833	 7.7999	 8.4722	0
303	12	23	1	4	462.1490	29	1	800	3553.2584	 0.0019	 8.4832	 9.2998	10.0166	10.4798	0
303	12	24	1	4	373.3939	56	1	800	3553.2584	 0.0019	10.4999	11.3166	12.0332	12.4077	0
303	12	25	1	4	699.8406	1	0	800	3553.2584	 0.0019	12.4165	13.2332	13.9500	14.6507	0
303	12	26	1	4	699.9060	1	0	800	3553.2584	 0.0019	 0.0201	 0.8369	 1.5536	 2.2542	0
303	12	27	1	4	465.5595	29	1	800	3553.2584	 0.0019	 0.0157	 0.8324	 1.5491	 2.0157	0
303	12	28	1	4	464.7983	56	1	800	3553.2584	 0.0019	 2.0324	 2.8491	 3.5657	 4.0315	0
303	12	29	1	4	335.9385	56	1	800	3553.2584	 0.0019	 4.0490	 4.8657	 5.5825	 5.9194	0
303	12	30	1	4	469.1349	56	1	800	3553.2584	 0.0019	 5.9324	 6.7491	 7.4658	 7.9359	0
303	13	1	1	5	519.4213	29	1	800	3633.2080	 0.0007	 0.0102	 0.8270	 1.5436	 2.0641	0
303	13	2	1	5	436.1389	29	1	800	3633.2080	 0.0007	 2.0770	 2.8936	 3.6102	 4.0474	0
303	13	3	1	5	404.9836	56	1	800	3633.2080	 0.0007	 4.0603	 4.8770	 5.5936	 5.9998	0
303	13	4	1	5	582.7739	29	0	800	3633.2080	 0.0007	 6.0103	 6.8269	 7.5436	 8.1274	0
303	13	5	1	5	515.2607	29	1	800	3633.2080	 0.0007	 0.0226	 0.8392	 1.5559	 2.0722	0
303	13	6	1	5	584.9690	29	1	800	3633.2080	 0.0007	 2.0892	 2.9058	 3.6225	 4.2085	0
303	13	7	1	5	395.8488	56	1	800	3633.2080	 0.0007	 4.2225	 5.0392	 5.7558	 6.1527	0
303	13	8	1	5	699.8325	1	0	800	3633.2080	 0.0007	 6.1725	 6.9892	 7.7059	 8.4064	0
303	13	9	1	5	700.0033	1	0	800	3633.2080	 0.0007	 0.0183	 0.8350	 1.5517	 2.2525	0
303	13	10	1	5	433.3882	29	0	800	3633.2080	 0.0007	 0.0168	 0.8334	 1.5501	 1.9845	0
303	13	11	1	5	699.5317	1	0	800	3633.2080	 0.0007	 0.0144	 0.8312	 1.5478	 2.2481	0
303	13	12	1	5	647.2226	29	1	800	3633.2080	 0.0007	 0.0096	 0.8263	 1.5430	 2.1913	0
303	13	1	2	5	332.1679	56	1	800	3633.2080	 0.0007	 0.0056	 0.8222	 1.5389	 1.8722	 2.1941
303	13	2	2	5	400.5727	56	1	800	3633.2080	 0.0007	 1.8889	 2.7056	 3.4223	 3.8238	 2.1941
303	13	3	2	5	530.3311	56	1	800	3633.2080	 0.0007	 3.8389	 4.6556	 5.3722	 5.9036	 2.1941
303	13	4	2	5	462.8524	56	1	800	3633.2080	 0.0007	 5.9222	 6.7390	 7.4556	 7.9195	 2.1941
303	13	5	2	5	574.2328	29	1	800	3633.2080	 0.0007	 7.9390	 8.7557	 9.4723	10.0476	 2.1941
303	13	6	2	5	450.1891	29	1	800	3633.2080	 0.0007	10.0556	10.8723	11.5890	12.0402	 2.1941
303	13	7	2	5	609.9174	29	1	800	3633.2080	 0.0007	12.0556	12.8723	13.5889	14.1998	 2.1941
303	13	8	2	5	370.6272	56	1	800	3633.2080	 0.0007	14.2223	15.0390	15.7557	16.1274	 2.1941
303	13	9	2	5	486.8478	56	1	800	3633.2080	 0.0007	16.1389	16.9556	17.6722	18.1600	 2.1941
303	13	10	2	5	699.6186	1	0	800	3633.2080	 0.0007	18.1723	18.9889	19.7056	20.4059	 2.1941
303	13	11	2	5	373.9837	56	1	800	3633.2080	 0.0007	 0.0193	 0.8359	 1.5526	 1.9276	 2.1941
303	13	12	2	5	521.4433	56	1	800	3633.2080	 0.0007	 1.9359	 2.7526	 3.4692	 3.9917	 2.1941
303	13	1	3	5	427.2971	29	1	800	3633.2080	 0.0007	 0.0060	 0.8226	 1.5393	 1.9678	 3.9942
303	13	2	3	5	324.9196	56	1	800	3633.2080	 0.0007	 1.9894	 2.8060	 3.5226	 3.8491	 3.9942
303	13	3	3	5	409.4926	56	1	800	3633.2080	 0.0007	 3.8726	 4.6893	 5.4060	 5.8167	 3.9942
303	13	4	3	5	410.2986	56	1	800	3633.2080	 0.0007	 5.8394	 6.6560	 7.3727	 7.7840	 3.9942
303	13	5	3	5	380.0282	56	1	800	3633.2080	 0.0007	 7.8061	 8.6226	 9.3392	 9.7202	 3.9942
303	13	6	3	5	422.6077	29	1	800	3633.2080	 0.0007	 9.7394	10.5560	11.2726	11.6962	 3.9942
303	13	7	3	5	335.2270	56	1	800	3633.2080	 0.0007	11.7060	12.5226	13.2393	13.5757	 3.9942
303	13	8	3	5	420.6363	56	0	800	3633.2080	 0.0007	13.5893	14.4060	15.1227	15.5443	 3.9942
303	13	9	3	5	517.0277	29	1	800	3633.2080	 0.0007	 0.0123	 0.8290	 1.5457	 2.0638	 3.9942
303	13	10	3	5	330.6625	56	1	800	3633.2080	 0.0007	 2.0790	 2.8957	 3.6123	 3.9439	 3.9942
303	13	11	3	5	470.5245	29	1	800	3633.2080	 0.0007	 3.9624	 4.7790	 5.4957	 5.9672	 3.9942
303	13	12	3	5	398.8136	56	1	800	3633.2080	 0.0007	 5.9790	 6.7956	 7.5122	 7.9120	 3.9942
303	13	1	4	5	482.7499	29	1	800	3633.2080	 0.0007	 0.0150	 0.8317	 1.5483	 2.0321	 7.9143
303	13	2	4	5	369.3621	56	1	800	3633.2080	 0.0007	 2.0483	 2.8650	 3.5817	 3.9522	 7.9143
303	13	3	4	5	532.7986	29	1	800	3633.2080	 0.0007	 3.9650	 4.7817	 5.4983	 6.0323	 7.9143
303	13	4	4	5	369.8598	56	1	800	3633.2080	 0.0007	 6.0484	 6.8649	 7.5816	 7.9525	 7.9143
303	13	5	4	5	420.8140	29	1	800	3633.2080	 0.0007	 7.9650	 8.7817	 9.4982	 9.9201	 7.9143
303	13	6	4	5	366.7618	56	1	800	3633.2080	 0.0007	 9.9317	10.7483	11.4649	11.8327	 7.9143
303	13	7	4	5	521.6813	29	1	800	3633.2080	 0.0007	11.8483	12.6649	13.3817	13.9044	 7.9143
303	13	8	4	5	439.2992	29	1	800	3633.2080	 0.0007	13.9150	14.7316	15.4483	15.8885	 7.9143
303	13	9	4	5	431.7102	29	1	800	3633.2080	 0.0007	15.8983	16.7150	17.4316	17.8643	 7.9143
303	13	10	4	5	496.5735	56	1	800	3633.2080	 0.0007	17.8816	18.6983	19.4150	19.9125	 7.9143
303	13	11	4	5	374.4521	56	1	800	3633.2080	 0.0007	19.9317	20.7483	21.4649	21.8404	 7.9143
303	13	12	4	5	473.4113	29	1	800	3633.2080	 0.0007	21.8483	22.6649	23.3817	23.8561	 7.9143
303	14	1	1	5	699.6679	1	0	800	3807.3422	 0.0012	 0.0116	 0.8283	 1.5448	 2.2452	0
303	14	2	1	5	609.3966	29	1	800	3807.3422	 0.0012	 0.0160	 0.8327	 1.5493	 2.1598	0
303	14	3	1	5	484.1270	56	1	800	3807.3422	 0.0012	 2.1659	 2.9826	 3.6993	 4.1844	0
303	14	4	1	5	506.1830	56	1	800	3807.3422	 0.0012	 4.1993	 5.0160	 5.7326	 6.2399	0
303	14	5	1	5	400.2693	29	1	800	3807.3422	 0.0012	 6.2493	 7.0659	 7.7827	 8.1840	0
303	14	6	1	5	562.6631	56	0	800	3807.3422	 0.0012	 8.1993	 9.0160	 9.7327	10.2967	0
303	14	7	1	5	688.6595	56	1	800	3807.3422	 0.0012	 0.0090	 0.8257	 1.5423	 2.2319	0
303	14	8	1	5	543.2701	29	1	800	3807.3422	 0.0012	 2.2423	 3.0589	 3.7756	 4.3198	0
303	14	9	1	5	379.3362	29	1	800	3807.3422	 0.0012	 4.3255	 5.1423	 5.8590	 6.2393	0
303	14	10	1	5	461.9963	29	1	800	3807.3422	 0.0012	 6.2590	 7.0756	 7.7922	 8.2552	0
303	14	11	1	5	445.3251	56	1	800	3807.3422	 0.0012	 8.2757	 9.0923	 9.8090	10.2553	0
303	14	12	1	5	358.0411	56	1	800	3807.3422	 0.0012	10.2757	11.0923	11.8089	12.1680	0
303	14	13	1	5	401.4545	56	1	800	3807.3422	 0.0012	12.1756	12.9923	13.7089	14.1114	0
303	14	14	1	5	323.2668	56	1	800	3807.3422	 0.0012	14.1257	14.9422	15.6590	15.9832	0
303	14	15	1	5	384.5691	56	1	800	3807.3422	 0.0012	15.9922	16.8089	17.5257	17.9113	0
303	14	16	1	5	476.0710	56	0	800	3807.3422	 0.0012	17.9257	18.7423	19.4590	19.9360	0
303	14	17	1	5	490.9292	56	1	800	3807.3422	 0.0012	 0.0225	 0.8391	 1.5558	 2.0479	0
303	14	18	1	5	377.3153	56	1	800	3807.3422	 0.0012	 2.0557	 2.8725	 3.5891	 3.9675	0
303	14	19	1	5	565.0889	29	1	800	3807.3422	 0.0012	 3.9724	 4.7891	 5.5058	 6.0719	0
303	14	20	1	5	392.6806	29	1	800	3807.3422	 0.0012	 6.0892	 6.9059	 7.6225	 8.0161	0
303	14	21	1	5	475.3211	29	1	800	3807.3422	 0.0012	 8.0224	 8.8391	 9.5558	10.0320	0
303	14	22	1	5	562.3645	29	1	800	3807.3422	 0.0012	10.0391	10.8558	11.5725	12.1359	0
303	14	23	1	5	437.7361	56	1	800	3807.3422	 0.0012	12.1559	12.9725	13.6891	14.1279	0
303	14	24	1	5	398.0340	56	1	800	3807.3422	 0.0012	14.1391	14.9558	15.6725	16.0717	0
303	14	25	1	5	336.6330	56	1	800	3807.3422	 0.0012	16.0892	16.9058	17.6225	17.9600	0
303	14	26	1	5	396.7713	29	1	800	3807.3422	 0.0012	17.9724	18.7891	19.5058	19.9037	0
303	14	27	1	5	351.3967	56	1	800	3807.3422	 0.0012	19.9225	20.7392	21.4558	21.8082	0
303	14	28	1	5	458.7067	29	1	800	3807.3422	 0.0012	21.8225	22.6391	23.3558	23.8155	0
303	14	29	1	5	586.6852	29	1	800	3807.3422	 0.0012	23.8224	24.6391	25.3558	25.9435	0
303	14	30	1	5	389.5582	56	1	800	3807.3422	 0.0012	25.9558	26.7724	27.4891	27.8799	0
303	15	1	1	5	659.8677	29	1	800	3880.0083	 0.0023	 0.0135	 0.8301	 1.5468	 2.2076	0
303	15	2	1	5	403.3095	56	1	800	3880.0083	 0.0023	 2.2133	 3.0301	 3.7468	 4.1520	0
303	15	3	1	5	493.2736	56	1	800	3880.0083	 0.0023	 4.1634	 4.9801	 5.6967	 6.1909	0
303	15	4	1	5	492.0324	29	0	800	3880.0083	 0.0023	 6.1967	 7.0134	 7.7301	 8.2232	0
303	15	5	1	5	472.2862	29	1	800	3880.0083	 0.0023	 0.0170	 0.8336	 1.5503	 2.0237	0
303	15	6	1	5	559.7033	56	0	800	3880.0083	 0.0023	 2.0336	 2.8503	 3.5670	 4.1277	0
303	15	7	1	5	544.7676	29	1	800	3880.0083	 0.0023	 0.0173	 0.8339	 1.5507	 2.0964	0
303	15	8	1	5	540.7942	56	0	800	3880.0083	 0.0023	 2.1173	 2.9339	 3.6506	 4.1924	0
303	15	9	1	5	652.4175	29	1	800	3880.0083	 0.0023	 0.0131	 0.8299	 1.5465	 2.1999	0
303	15	10	1	5	699.4989	1	0	800	3880.0083	 0.0023	 2.2132	 3.0298	 3.7465	 4.4467	0
303	15	11	1	5	517.9089	29	1	800	3880.0083	 0.0023	 0.0118	 0.8285	 1.5452	 2.0641	0
303	15	12	1	5	362.7351	56	0	800	3880.0083	 0.0023	 2.0785	 2.8952	 3.6119	 3.9756	0
303	15	1	2	5	491.6631	29	0	800	3880.0083	 0.0023	 0.0141	 0.8308	 1.5475	 2.0402	 0.0024
303	15	2	2	5	644.7002	29	1	800	3880.0083	 0.0023	 0.0132	 0.8298	 1.5465	 2.1922	 0.0024
303	15	3	2	5	621.2900	29	1	800	3880.0083	 0.0023	 2.1964	 3.0132	 3.7299	 4.3521	 0.0024
303	15	4	2	5	549.9891	29	1	800	3880.0083	 0.0023	 4.3632	 5.1798	 5.8965	 6.4475	 0.0024
303	15	5	2	5	562.2615	56	0	800	3880.0083	 0.0023	 6.4632	 7.2799	 7.9966	 8.5599	 0.0024
303	15	6	2	5	699.6187	1	0	800	3880.0083	 0.0023	 0.0225	 0.8392	 1.5559	 2.2562	 0.0024
303	15	7	2	5	428.1976	56	0	800	3880.0083	 0.0023	 0.0134	 0.8302	 1.5469	 1.9762	 0.0024
303	15	8	2	5	 0.1316	29	1	800	3880.0083	 0.0023	 0.0140	 0.8308	 1.5475	 1.5488	 0.0024
303	15	9	2	5	699.9844	44	0	800	3880.0083	 0.0023	 1.5641	 2.3808	 3.0974	 3.7981	 0.0024
303	15	10	2	5	699.8734	1	0	800	3880.0083	 0.0023	 0.0079	 0.8246	 1.5414	 2.2420	 0.0024
303	15	11	2	5	699.4752	1	0	800	3880.0083	 0.0023	 0.0115	 0.8283	 1.5448	 2.2450	 0.0024
303	15	12	2	5	699.8292	1	0	800	3880.0083	 0.0023	 0.0182	 0.8348	 1.5515	 2.2522	 0.0024
303	15	1	3	5	652.6757	29	1	800	3880.0083	 0.0023	 0.0122	 0.8289	 1.5456	 2.1993	 0.0024
303	15	2	3	5	644.7960	29	1	800	3880.0083	 0.0023	 2.2122	 3.0288	 3.7455	 4.3913	 0.0024
303	15	3	3	5	421.0680	56	1	800	3880.0083	 0.0023	 4.4122	 5.2289	 5.9455	 6.3676	 0.0024
303	15	4	3	5	454.0313	56	1	800	3880.0083	 0.0023	 6.3789	 7.1956	 7.9122	 8.3673	 0.0024
303	15	5	3	5	469.8953	29	1	800	3880.0083	 0.0023	 8.3789	 9.1956	 9.9122	10.3831	 0.0024
303	15	6	3	5	413.3324	29	1	800	3880.0083	 0.0023	10.3955	11.2122	11.9289	12.3433	 0.0024
303	15	7	3	5	551.1767	56	0	800	3880.0083	 0.0023	12.3622	13.1789	13.8955	14.4477	 0.0024
303	15	8	3	5	517.3639	29	1	800	3880.0083	 0.0023	 0.0208	 0.8376	 1.5541	 2.0724	 0.0024
303	15	9	3	5	506.2279	29	1	800	3880.0083	 0.0023	 2.0875	 2.9042	 3.6209	 4.1282	 0.0024
303	15	10	3	5	552.2405	56	1	800	3880.0083	 0.0023	 4.1375	 4.9542	 5.6709	 6.2242	 0.0024
303	15	11	3	5	444.7576	56	0	800	3880.0083	 0.0023	 6.2375	 7.0542	 7.7708	 8.2166	 0.0024
303	15	12	3	5	451.2598	56	1	800	3880.0083	 0.0023	 0.0142	 0.8309	 1.5476	 2.0000	 0.0024
303	15	1	4	5	526.0834	29	1	800	3880.0083	 0.0023	 0.0034	 0.8202	 1.5369	 2.0641	 2.0024
303	15	2	4	5	579.6422	29	1	800	3880.0083	 0.0023	 2.0701	 2.8869	 3.6035	 4.1843	 2.0024
303	15	3	4	5	429.9774	29	1	800	3880.0083	 0.0023	 4.2035	 5.0202	 5.7369	 6.1679	 2.0024
303	15	4	4	5	614.5238	56	1	800	3880.0083	 0.0023	 6.1868	 7.0035	 7.7202	 8.3357	 2.0024
303	15	5	4	5	440.4174	29	1	800	3880.0083	 0.0023	 8.3535	 9.1702	 9.8869	10.3283	 2.0024
303	15	6	4	5	361.3326	56	1	800	3880.0083	 0.0023	10.3368	11.1535	11.8702	12.2324	 2.0024
303	15	7	4	5	492.8762	56	1	800	3880.0083	 0.0023	12.2368	13.0535	13.7702	14.2642	 2.0024
303	15	8	4	5	475.1716	29	1	800	3880.0083	 0.0023	14.2701	15.0868	15.8036	16.2797	 2.0024
303	15	9	4	5	459.5977	29	1	800	3880.0083	 0.0023	16.2868	17.1035	17.8201	18.2809	 2.0024
303	15	10	4	5	466.8822	29	1	800	3880.0083	 0.0023	18.2868	19.1035	19.8202	20.2881	 2.0024
303	15	11	4	5	362.3748	56	1	800	3880.0083	 0.0023	20.3034	21.1201	21.8368	22.2004	 2.0024
303	15	12	4	5	485.8029	56	1	800	3880.0083	 0.0023	22.2201	23.0368	23.7535	24.2404	 2.0024
303	16	1	1	6	426.9460	56	1	800	4073.1413	 0.0008	 0.0069	 0.8236	 1.5403	 1.9683	0
303	16	2	1	6	555.9641	29	1	800	4073.1413	 0.0008	 1.9735	 2.7903	 3.5069	 4.0639	0
303	16	3	1	6	624.6308	29	1	800	4073.1413	 0.0008	 4.0735	 4.8902	 5.6070	 6.2325	0
303	16	4	1	6	441.4310	29	1	800	4073.1413	 0.0008	 6.2402	 7.0569	 7.7737	 8.2163	0
303	16	5	1	6	338.2131	56	1	800	4073.1413	 0.0008	 8.2235	 9.0403	 9.7570	10.0963	0
303	16	6	1	6	462.8883	29	1	800	4073.1413	 0.0008	10.1069	10.9236	11.6403	12.1043	0
303	16	7	1	6	398.0262	56	1	800	4073.1413	 0.0008	12.1236	12.9403	13.6570	14.0561	0
303	16	8	1	6	440.7354	56	0	800	4073.1413	 0.0008	14.0735	14.8902	15.6069	16.0485	0
303	16	9	1	6	618.7084	29	1	800	4073.1413	 0.0008	 0.0075	 0.8243	 1.5409	 2.1606	0
303	16	10	1	6	379.3335	56	1	800	4073.1413	 0.0008	 2.1742	 2.9909	 3.7076	 4.0879	0
303	16	11	1	6	454.3477	29	1	800	4073.1413	 0.0008	 4.1075	 4.9242	 5.6409	 6.0964	0
303	16	12	1	6	390.4571	56	1	800	4073.1413	 0.0008	 6.1075	 6.9242	 7.6409	 8.0326	0
303	16	13	1	6	561.2590	29	1	800	4073.1413	 0.0008	 8.0409	 8.8576	 9.5742	10.1364	0
303	16	14	1	6	445.3962	56	1	800	4073.1413	 0.0008	10.1408	10.9576	11.6742	12.1206	0
303	16	15	1	6	476.7011	29	1	800	4073.1413	 0.0008	12.1409	12.9576	13.6742	14.1520	0
303	16	16	1	6	452.7636	56	1	800	4073.1413	 0.0008	14.1575	14.9742	15.6909	16.1446	0
303	16	17	1	6	444.0424	29	1	800	4073.1413	 0.0008	16.1575	16.9742	17.6908	18.1359	0
303	16	18	1	6	388.7449	56	1	800	4073.1413	 0.0008	18.1408	18.9576	19.6743	20.0641	0
303	16	19	1	6	439.3222	56	1	800	4073.1413	 0.0008	20.0742	20.8909	21.6075	22.0479	0
303	16	20	1	6	383.9821	56	1	800	4073.1413	 0.0008	22.0575	22.8742	23.5909	23.9759	0
303	16	21	1	6	434.7375	29	1	800	4073.1413	 0.0008	23.9909	24.8075	25.5242	25.9600	0
303	16	22	1	6	451.3746	56	1	800	4073.1413	 0.0008	25.9742	26.7908	27.5076	27.9599	0
303	16	23	1	6	451.7794	56	1	800	4073.1413	 0.0008	27.9742	28.7909	29.5076	29.9604	0
303	16	24	1	6	339.3757	56	1	800	4073.1413	 0.0008	29.9742	30.7909	31.5076	31.8480	0
303	16	25	1	6	496.6856	56	1	800	4073.1413	 0.0008	31.8575	32.6742	33.3909	33.8886	0
303	16	26	1	6	446.1493	29	1	800	4073.1413	 0.0008	33.9075	34.7242	35.4408	35.8880	0
303	16	27	1	6	470.3828	29	1	800	4073.1413	 0.0008	35.9075	36.7242	37.4408	37.9122	0
303	16	28	1	6	645.6905	56	1	800	4073.1413	 0.0008	37.9242	38.7409	39.4575	40.1043	0
303	16	29	1	6	677.4000	29	1	800	4073.1413	 0.0008	40.1242	40.9409	41.6576	42.3360	0
303	16	30	1	6	357.3843	56	1	800	4073.1413	 0.0008	42.3408	43.1576	43.8742	44.2326	0
303	17	1	1	6	504.5554	56	1	800	4144.6414	 0.0007	 0.0092	 0.8259	 1.5426	 2.0481	0
303	17	2	1	6	446.7915	56	1	800	4144.6414	 0.0007	 2.0593	 2.8760	 3.5925	 4.0403	0
303	17	3	1	6	414.4019	29	1	800	4144.6414	 0.0007	 4.0592	 4.8760	 5.5926	 6.0081	0
303	17	4	1	6	351.3356	56	1	800	4144.6414	 0.0007	 6.0259	 6.8426	 7.5592	 7.9117	0
303	17	5	1	6	403.4270	29	1	800	4144.6414	 0.0007	 7.9259	 8.7426	 9.4592	 9.8637	0
303	17	6	1	6	501.9549	29	1	800	4144.6414	 0.0007	 9.8759	10.6926	11.4093	11.9122	0
303	17	7	1	6	363.3133	56	1	800	4144.6414	 0.0007	11.9260	12.7426	13.4592	13.8235	0
303	17	8	1	6	454.8811	29	1	800	4144.6414	 0.0007	13.8426	14.6593	15.3759	15.8319	0
303	17	9	1	6	358.7532	56	0	800	4144.6414	 0.0007	15.8426	16.6593	17.3760	17.7358	0
303	17	10	1	6	393.9083	56	1	800	4144.6414	 0.0007	 0.0154	 0.8321	 1.5488	 1.9437	0
303	17	11	1	6	364.8207	29	1	800	4144.6414	 0.0007	 1.9655	 2.7820	 3.4987	 3.8645	0
303	17	12	1	6	464.1899	56	1	800	4144.6414	 0.0007	 3.8822	 4.6987	 5.4155	 5.8807	0
303	17	1	2	6	504.0917	29	1	800	4144.6414	 0.0007	 0.0182	 0.8348	 1.5515	 2.0565	 5.8847
303	17	2	2	6	437.4168	29	1	800	4144.6414	 0.0007	 2.0682	 2.8849	 3.6015	 4.0400	 5.8847
303	17	3	2	6	382.4606	56	1	800	4144.6414	 0.0007	 4.0516	 4.8681	 5.5848	 5.9683	 5.8847
303	17	4	2	6	448.9019	29	1	800	4144.6414	 0.0007	 5.9849	 6.8016	 7.5182	 7.9681	 5.8847
303	17	5	2	6	416.7907	29	1	800	4144.6414	 0.0007	 7.9848	 8.8016	 9.5182	 9.9360	 5.8847
303	17	6	2	6	434.0163	56	1	800	4144.6414	 0.0007	 9.9516	10.7682	11.4849	11.9199	 5.8847
303	17	7	2	6	410.7711	29	1	800	4144.6414	 0.0007	11.9349	12.7515	13.4682	13.8802	 5.8847
303	17	8	2	6	324.3317	56	1	800	4144.6414	 0.0007	13.9015	14.7182	15.4349	15.7603	 5.8847
303	17	9	2	6	402.0840	56	1	800	4144.6414	 0.0007	15.7682	16.5849	17.3015	17.7046	 5.8847
303	17	10	2	6	403.7803	56	1	800	4144.6414	 0.0007	17.7182	18.5349	19.2515	19.6565	 5.8847
303	17	11	2	6	301.3499	56	1	800	4144.6414	 0.0007	19.6682	20.4849	21.2015	21.5039	 5.8847
303	17	12	2	6	363.6632	56	1	800	4144.6414	 0.0007	21.5183	22.3349	23.0515	23.4162	 5.8847
303	18	1	1	6	439.9908	56	1	800	4248.3748	 0.0007	 0.0105	 0.8271	 1.5437	 1.9846	0
303	18	2	1	6	448.1408	56	1	800	4248.3748	 0.0007	 1.9937	 2.8104	 3.5270	 3.9762	0
303	18	3	1	6	407.9661	29	1	800	4248.3748	 0.0007	 3.9937	 4.8104	 5.5271	 5.9360	0
303	18	4	1	6	377.9453	56	1	800	4248.3748	 0.0007	 5.9604	 6.7771	 7.4938	 7.8727	0
303	18	5	1	6	404.2855	29	1	800	4248.3748	 0.0007	 7.8938	 8.7105	 9.4271	 9.8325	0
303	18	6	1	6	430.0793	56	1	800	4248.3748	 0.0007	 9.8439	10.6604	11.3771	11.8082	0
303	18	7	1	6	382.6040	56	1	800	4248.3748	 0.0007	11.8271	12.6437	13.3604	13.7440	0
303	18	8	1	6	425.8928	56	0	800	4248.3748	 0.0007	13.7604	14.5770	15.2938	15.7206	0
303	18	9	1	6	428.7418	29	1	800	4248.3748	 0.0007	 0.0128	 0.8294	 1.5460	 1.9759	0
303	18	10	1	6	699.9847	1	0	800	4248.3748	 0.0007	 1.9961	 2.8128	 3.5293	 4.2300	0
303	18	11	1	6	458.5732	56	1	800	4248.3748	 0.0007	 0.0141	 0.8307	 1.5475	 2.0071	0
303	18	12	1	6	395.3044	56	1	800	4248.3748	 0.0007	 2.0172	 2.8307	 3.5474	 3.9436	0
303	18	13	1	6	565.0052	29	1	800	4248.3748	 0.0007	 3.9641	 4.7807	 5.4974	 6.0635	0
303	18	14	1	6	440.6288	56	1	800	4248.3748	 0.0007	 6.0808	 6.8974	 7.6141	 8.0556	0
303	18	15	1	6	400.9186	29	1	800	4248.3748	 0.0007	 8.0641	 8.8808	 9.5974	 9.9993	0
303	18	16	1	6	435.0586	29	1	800	4248.3748	 0.0007	10.0141	10.8308	11.5474	11.9835	0
303	18	17	1	6	339.7608	56	1	800	4248.3748	 0.0007	11.9975	12.8141	13.5307	13.8716	0
303	18	18	1	6	400.1412	29	1	800	4248.3748	 0.0007	13.8808	14.6974	15.4140	15.8152	0
303	18	19	1	6	354.3349	56	1	800	4248.3748	 0.0007	15.8309	16.6474	17.3641	17.7195	0
303	18	20	1	6	374.0222	56	1	800	4248.3748	 0.0007	17.7307	18.5474	19.2641	19.6392	0
303	18	21	1	6	377.9021	56	1	800	4248.3748	 0.0007	19.6474	20.4640	21.1808	21.5596	0
303	18	22	1	6	380.8945	56	1	800	4248.3748	 0.0007	21.5808	22.3974	23.1140	23.4958	0
303	18	23	1	6	326.6915	56	1	800	4248.3748	 0.0007	23.5142	24.3307	25.0474	25.3751	0
303	18	24	1	6	420.3280	29	1	800	4248.3748	 0.0007	25.3812	26.1975	26.9141	27.3354	0
303	18	25	1	6	550.1710	29	1	800	4248.3748	 0.0007	27.3475	28.1641	28.8807	29.4318	0
303	18	26	1	6	577.3190	29	1	800	4248.3748	 0.0007	29.4474	30.2640	30.9807	31.5591	0
303	18	27	1	6	637.5503	29	1	800	4248.3748	 0.0007	31.5652	32.3807	33.0973	33.7360	0
303	18	28	1	6	470.0951	29	1	800	4248.3748	 0.0007	33.7475	34.5641	35.2807	35.7518	0
303	18	29	1	6	380.7641	56	1	800	4248.3748	 0.0007	35.7641	36.5808	37.2974	37.6794	0
303	18	30	1	6	408.0353	29	1	800	4248.3748	 0.0007	37.6975	38.5141	39.2308	39.6398	0
303	19	1	1	7	686.6351	29	1	800	4320.2750	 0.0015	 0.0182	 0.8348	 1.5515	 2.2391	0
303	19	2	1	7	446.0245	29	1	800	4320.2750	 0.0015	 2.2516	 3.0682	 3.7848	 4.2318	0
303	19	3	1	7	333.2194	56	1	800	4320.2750	 0.0015	 4.2515	 5.0682	 5.7848	 6.1191	0
303	19	4	1	7	585.9959	56	1	800	4320.2750	 0.0015	 6.1349	 6.9516	 7.6682	 8.2553	0
303	19	5	1	7	357.5082	56	1	800	4320.2750	 0.0015	 8.2682	 9.0849	 9.8015	10.1600	0
303	19	6	1	7	369.4208	56	1	800	4320.2750	 0.0015	10.1682	10.9848	11.7015	12.0720	0
303	19	7	1	7	324.8028	56	1	800	4320.2750	 0.0015	12.0849	12.9014	13.6182	13.9439	0
303	19	8	1	7	394.1628	56	1	800	4320.2750	 0.0015	13.9515	14.7682	15.4848	15.8801	0
303	19	9	1	7	452.2337	29	1	800	4320.2750	 0.0015	15.8860	16.7015	17.4182	17.8715	0
303	19	10	1	7	699.8973	1	0	800	4320.2750	 0.0015	17.8849	18.7015	19.4182	20.1189	0
303	19	11	1	7	699.6460	1	0	800	4320.2750	 0.0015	 0.0088	 0.8255	 1.5422	 2.2426	0
303	19	12	1	7	541.9436	56	1	800	4320.2750	 0.0015	 0.0197	 0.8368	 1.5529	 2.0959	0
303	19	1	2	7	424.0422	29	1	800	4320.2750	 0.0015	 0.0174	 0.8341	 1.5507	 1.9757	 2.0984
303	19	2	2	7	353.2530	56	1	800	4320.2750	 0.0015	 1.9840	 2.8007	 3.5173	 3.8716	 2.0984
303	19	3	2	7	333.3115	56	1	800	4320.2750	 0.0015	 3.8841	 4.7008	 5.4173	 5.7516	 2.0984
303	19	4	2	7	457.9048	56	1	800	4320.2750	 0.0015	 5.7675	 6.5841	 7.3007	 7.7596	 2.0984
303	19	5	2	7	393.8738	56	1	800	4320.2750	 0.0015	 7.7673	 8.5840	 9.3007	 9.6957	 2.0984
303	19	6	2	7	356.5248	56	1	800	4320.2750	 0.0015	 9.7006	10.5174	11.2341	11.5916	 2.0984
303	19	7	2	7	560.7868	29	1	800	4320.2750	 0.0015	11.6006	12.4174	13.1340	13.6958	 2.0984
303	19	8	2	7	460.3761	29	1	800	4320.2750	 0.0015	13.7174	14.5340	15.2506	15.7120	 2.0984
303	19	9	2	7	404.6925	56	1	800	4320.2750	 0.0015	15.7173	16.5340	17.2507	17.6563	 2.0984
303	19	10	2	7	494.0528	29	1	800	4320.2750	 0.0015	17.6674	18.4840	19.2007	19.6958	 2.0984
303	19	11	2	7	428.0230	29	1	800	4320.2750	 0.0015	19.7174	20.5340	21.2507	21.6797	 2.0984
303	19	12	2	7	372.6230	56	1	800	4320.2750	 0.0015	21.7008	22.5174	23.2341	23.6078	 2.0984
303	20	1	1	7	438.9795	29	1	800	4412.6582	 0.0018	 0.0104	 0.8271	 1.5437	 1.9838	0
303	20	2	1	7	496.0901	29	1	800	4412.6582	 0.0018	 1.9937	 2.8104	 3.5270	 4.0242	0
303	20	3	1	7	509.5668	29	1	800	4412.6582	 0.0018	 4.0437	 4.8604	 5.5771	 6.0877	0
303	20	4	1	7	515.9188	29	1	800	4412.6582	 0.0018	 6.0937	 6.9104	 7.6271	 8.1441	0
303	20	5	1	7	456.6583	29	1	800	4412.6582	 0.0018	 8.1604	 8.9771	 9.6938	10.1515	0
303	20	6	1	7	368.9285	56	1	800	4412.6582	 0.0018	10.1603	10.9771	11.6937	12.0637	0
303	20	7	1	7	683.9342	29	1	800	4412.6582	 0.0018	12.0771	12.8938	13.6104	14.2955	0
303	20	8	1	7	450.6109	29	1	800	4412.6582	 0.0018	14.3105	15.1271	15.8437	16.2953	0
303	20	9	1	7	475.3391	29	1	800	4412.6582	 0.0018	16.3105	17.1271	17.8438	18.3201	0
303	20	10	1	7	465.8940	29	1	800	4412.6582	 0.0018	18.3270	19.1437	19.8604	20.3274	0
303	20	11	1	7	699.6537	1	0	800	4412.6582	 0.0018	20.3438	21.1604	21.8771	22.5775	0
303	20	12	1	7	512.6118	29	1	800	4412.6582	 0.0018	 0.0085	 0.8252	 1.5419	 2.0555	0
303	20	13	1	7	646.0723	29	1	800	4412.6582	 0.0018	 2.0753	 2.8919	 3.6085	 4.2557	0
303	20	14	1	7	430.9294	29	1	800	4412.6582	 0.0018	 4.2753	 5.0919	 5.8085	 6.2405	0
303	20	15	1	7	414.6431	29	1	800	4412.6582	 0.0018	 6.2586	 7.0753	 7.7918	 8.2074	0
303	20	16	1	7	464.3512	29	1	800	4412.6582	 0.0018	 8.2252	 9.0419	 9.7585	10.2240	0
303	20	17	1	7	431.4320	56	1	800	4412.6582	 0.0018	10.2419	11.0586	11.7752	12.2078	0
303	20	18	1	7	352.4006	56	1	800	4412.6582	 0.0018	12.2253	13.0419	13.7586	14.1120	0
303	20	19	1	7	532.2360	56	1	800	4412.6582	 0.0018	14.1252	14.9418	15.6586	16.1919	0
303	20	20	1	7	488.7159	29	1	800	4412.6582	 0.0018	16.2086	17.0253	17.7419	18.2318	0
303	20	21	1	7	416.0750	56	1	800	4412.6582	 0.0018	18.2418	19.0585	19.7752	20.1923	0
303	20	22	1	7	473.3600	29	1	800	4412.6582	 0.0018	20.2086	21.0252	21.7419	22.2162	0
303	20	23	1	7	392.0349	56	1	800	4412.6582	 0.0018	22.2252	23.0418	23.7585	24.1516	0
303	20	24	1	7	443.1142	56	1	800	4412.6582	 0.0018	24.1585	24.9752	25.6919	26.1361	0
303	20	25	1	7	388.1468	56	1	800	4412.6582	 0.0018	26.1418	26.9585	27.6752	28.0645	0
303	20	26	1	7	437.9865	56	1	800	4412.6582	 0.0018	28.0752	28.8919	29.6085	30.0475	0
303	20	27	1	7	454.6569	29	1	800	4412.6582	 0.0018	30.0585	30.8752	31.5919	32.0484	0
303	20	28	1	7	534.6440	29	1	800	4412.6582	 0.0018	32.0586	32.8753	33.5918	34.1275	0
303	20	29	1	7	435.4676	56	1	800	4412.6582	 0.0018	34.1419	34.9586	35.6752	36.1118	0
303	20	30	1	7	388.0549	56	1	800	4412.6582	 0.0018	36.1253	36.9419	37.6586	38.0478	0
303	21	1	1	7	661.8060	29	1	800	4487.3915	 0.0007	 0.0194	 0.8362	 1.5528	 2.2157	0
303	21	2	1	7	699.6602	1	0	800	4487.3915	 0.0007	 2.2362	 3.0529	 3.7696	 4.4699	0
303	21	3	1	7	485.2354	29	1	800	4487.3915	 0.0007	 0.0202	 0.8368	 1.5536	 2.0398	0
303	21	4	1	7	556.5864	56	0	800	4487.3915	 0.0007	 2.0535	 2.8701	 3.5869	 4.1444	0
303	21	5	1	7	484.0813	29	1	800	4487.3915	 0.0007	 0.0138	 0.8304	 1.5471	 2.0322	0
303	21	6	1	7	393.9313	56	1	800	4487.3915	 0.0007	 2.0470	 2.8637	 3.5804	 3.9755	0
303	21	7	1	7	588.5187	29	0	800	4487.3915	 0.0007	 3.9972	 4.8137	 5.5303	 6.1199	0
303	21	8	1	7	616.7479	29	1	800	4487.3915	 0.0007	 0.0239	 0.8406	 1.5573	 2.1751	0
303	21	9	1	7	578.3850	56	1	800	4487.3915	 0.0007	 2.1906	 3.0073	 3.7239	 4.3035	0
303	21	10	1	7	468.9844	29	0	800	4487.3915	 0.0007	 4.3240	 5.1406	 5.8573	 6.3274	0
303	21	11	1	7	699.7149	1	0	800	4487.3915	 0.0007	 0.0141	 0.8309	 1.5474	 2.2478	0
303	21	12	1	7	590.8652	29	1	800	4487.3915	 0.0007	 0.0115	 0.8282	 1.5450	 2.1369	0
303	21	1	2	7	479.8744	29	1	800	4487.3915	 0.0007	 0.0184	 0.8351	 1.5518	 2.0326	 2.1406
303	21	2	2	7	446.0152	29	1	800	4487.3915	 0.0007	 2.0518	 2.8685	 3.5851	 4.0321	 2.1406
303	21	3	2	7	526.5223	29	1	800	4487.3915	 0.0007	 4.0518	 4.8684	 5.5851	 6.1126	 2.1406
303	21	4	2	7	682.9720	56	0	800	4487.3915	 0.0007	 6.1351	 6.9517	 7.6684	 8.3526	 2.1406
303	21	5	2	7	582.0658	29	1	800	4487.3915	 0.0007	 0.0190	 0.8358	 1.5524	 2.1358	 2.1406
303	21	6	2	7	489.5141	56	1	800	4487.3915	 0.0007	 2.1523	 2.9691	 3.6857	 4.1763	 2.1406
303	21	7	2	7	495.6701	56	1	800	4487.3915	 0.0007	 4.1874	 5.0023	 5.7190	 6.2158	 2.1406
303	21	8	2	7	477.9158	29	1	800	4487.3915	 0.0007	 6.2358	 7.0524	 7.7691	 8.2479	 2.1406
303	21	9	2	7	540.1026	56	1	800	4487.3915	 0.0007	 8.2691	 9.0857	 9.8023	10.3435	 2.1406
303	21	10	2	7	416.7522	56	1	800	4487.3915	 0.0007	10.3526	11.1690	11.8856	12.3034	 2.1406
303	21	11	2	7	546.7430	56	1	800	4487.3915	 0.0007	12.3190	13.1356	13.8524	14.4000	 2.1406
303	21	12	2	7	534.4519	29	1	800	4487.3915	 0.0007	14.4191	15.2357	15.9523	16.4878	 2.1406
303	21	1	3	7	497.4947	56	1	800	4487.3915	 0.0007	 0.0082	 0.8248	 1.5415	 2.0400	16.4903
303	21	2	3	7	343.6981	56	1	800	4487.3915	 0.0007	 2.0582	 2.8748	 3.5915	 3.9365	16.4903
303	21	3	3	7	459.8498	56	0	800	4487.3915	 0.0007	 3.9582	 4.7748	 5.4916	 5.9524	16.4903
303	21	4	3	7	443.9458	56	1	800	4487.3915	 0.0007	 0.0140	 0.8307	 1.5473	 1.9922	16.4903
303	21	5	3	7	436.1801	56	1	800	4487.3915	 0.0007	 2.0140	 2.8307	 3.5473	 3.9844	16.4903
303	21	6	3	7	532.4085	29	0	800	4487.3915	 0.0007	 3.9973	 4.8139	 5.5306	 6.0641	16.4903
303	21	7	3	7	553.6913	29	1	800	4487.3915	 0.0007	 0.0244	 0.8412	 1.5578	 2.1126	16.4903
303	21	8	3	7	342.0726	56	1	800	4487.3915	 0.0007	 2.1244	 2.9411	 3.6578	 4.0008	16.4903
303	21	9	3	7	458.0109	56	1	800	4487.3915	 0.0007	 4.0244	 4.8411	 5.5578	 6.0168	16.4903
303	21	10	3	7	489.5138	56	1	800	4487.3915	 0.0007	 6.0244	 6.8410	 7.5577	 8.0484	16.4903
303	21	11	3	7	408.6835	56	1	800	4487.3915	 0.0007	 8.0578	 8.8744	 9.5911	10.0008	16.4903
303	21	12	3	7	554.0452	29	1	800	4487.3915	 0.0007	10.0244	10.8411	11.5577	12.1128	16.4903
303	21	1	4	7	444.5944	56	1	800	4487.3915	 0.0007	 0.0137	 0.8304	 1.5470	 1.9925	12.1151
303	21	2	4	7	404.6732	56	1	800	4487.3915	 0.0007	 2.0137	 2.8303	 3.5470	 3.9526	12.1151
303	21	3	4	7	582.3549	56	1	800	4487.3915	 0.0007	 3.9637	 4.7804	 5.4970	 6.0804	12.1151
303	21	4	4	7	392.6806	56	1	800	4487.3915	 0.0007	 6.0970	 6.9137	 7.6303	 8.0241	12.1151
303	21	5	4	7	483.2413	29	1	800	4487.3915	 0.0007	 8.0303	 8.8470	 9.5638	10.0482	12.1151
303	21	6	4	7	466.3157	29	1	800	4487.3915	 0.0007	10.0637	10.8804	11.5970	12.0644	12.1151
303	21	7	4	7	473.7063	56	1	800	4487.3915	 0.0007	12.0805	12.8970	13.6137	14.0884	12.1151
303	21	8	4	7	488.9291	29	0	800	4487.3915	 0.0007	14.0970	14.9137	15.6304	16.1203	12.1151
303	21	9	4	7	542.2581	29	1	800	4487.3915	 0.0007	 0.0197	 0.8363	 1.5530	 2.0964	12.1151
303	21	10	4	7	458.6486	29	1	800	4487.3915	 0.0007	 2.1029	 2.9196	 3.6363	 4.0959	12.1151
303	21	11	4	7	498.7967	56	0	800	4487.3915	 0.0007	 4.1029	 4.9195	 5.6363	 6.1362	12.1151
303	21	12	4	7	453.2608	29	1	800	4487.3915	 0.0007	 0.0204	 0.8371	 1.5538	 2.0081	12.1151
303	21	1	5	7	547.4092	29	1	800	4487.3915	 0.0007	 0.0059	 0.8225	 1.5393	 2.0877	 2.0106
303	21	2	5	7	495.7181	56	0	800	4487.3915	 0.0007	 2.1060	 2.9226	 3.6393	 4.1360	 2.0106
303	21	3	5	7	614.1010	29	1	800	4487.3915	 0.0007	 0.0194	 0.8359	 1.5526	 2.1678	 2.0106
303	21	4	5	7	607.3139	29	1	800	4487.3915	 0.0007	 2.1861	 3.0027	 3.7193	 4.3276	 2.0106
303	21	5	5	7	377.2219	56	1	800	4487.3915	 0.0007	 4.3359	 5.1525	 5.8693	 6.2475	 2.0106
303	21	6	5	7	364.6524	56	1	800	4487.3915	 0.0007	 6.2525	 7.0693	 7.7859	 8.1515	 2.0106
303	21	7	5	7	699.8864	1	0	800	4487.3915	 0.0007	 8.1693	 8.9859	 9.7026	10.4033	 2.0106
303	21	8	5	7	699.9018	1	0	800	4487.3915	 0.0007	 0.0218	 0.8383	 1.5550	 2.2558	 2.0106
303	21	9	5	7	527.3695	29	1	800	4487.3915	 0.0007	 0.0187	 0.8353	 1.5520	 2.0803	 2.0106
303	21	10	5	7	516.0187	29	1	800	4487.3915	 0.0007	 2.0853	 2.9020	 3.6186	 4.1357	 2.0106
303	21	11	5	7	433.4134	29	1	800	4487.3915	 0.0007	 4.1520	 4.9686	 5.6853	 6.1197	 2.0106
303	21	12	5	7	505.9715	29	1	800	4487.3915	 0.0007	 6.1354	 6.9520	 7.6687	 8.1758	 2.0106
303	21	1	6	7	475.4091	29	1	800	4487.3915	 0.0007	 0.0063	 0.8230	 1.5397	 2.0162	 8.1782
303	21	2	6	7	515.4667	29	1	800	4487.3915	 0.0007	 2.0230	 2.8397	 3.5564	 4.0729	 8.1782
303	21	3	6	7	432.6449	29	1	800	4487.3915	 0.0007	 4.0897	 4.9064	 5.6230	 6.0566	 8.1782
303	21	4	6	7	699.9389	1	0	800	4487.3915	 0.0007	 6.0730	 6.8897	 7.6064	 8.3070	 8.1782
303	21	5	6	7	493.4325	56	1	800	4487.3915	 0.0007	 0.0122	 0.8289	 1.5455	 2.0400	 8.1782
303	21	6	6	7	699.7680	1	0	800	4487.3915	 0.0007	 2.0455	 2.8621	 3.5789	 4.2794	 8.1782
303	21	7	6	7	489.2397	29	1	800	4487.3915	 0.0007	 0.0164	 0.8330	 1.5497	 2.0399	 8.1782
303	21	8	6	7	535.7444	29	1	800	4487.3915	 0.0007	 2.0496	 2.8663	 3.5830	 4.1198	 8.1782
303	21	9	6	7	428.6954	29	1	800	4487.3915	 0.0007	 4.1330	 4.9497	 5.6664	 6.0961	 8.1782
303	21	10	6	7	699.7532	1	0	800	4487.3915	 0.0007	 6.1164	 6.9330	 7.6497	 8.3501	 8.1782
303	21	11	6	7	538.0798	29	1	800	4487.3915	 0.0007	 0.0077	 0.8244	 1.5412	 2.0803	 8.1782
303	21	12	6	7	358.2665	29	0	800	4487.3915	 0.0007	 2.0911	 2.9078	 3.6244	 3.9837	 8.1782
303	21	1	7	7	411.4094	56	1	800	4487.3915	 0.0007	 0.0141	 0.8306	 1.5473	 1.9599	 0.0023
303	21	2	7	7	460.5726	29	1	800	4487.3915	 0.0007	 1.9807	 2.7974	 3.5140	 3.9756	 0.0023
303	21	3	7	7	477.3528	29	1	800	4487.3915	 0.0007	 3.9806	 4.7974	 5.5140	 5.9924	 0.0023
303	21	4	7	7	500.8648	29	1	800	4487.3915	 0.0007	 5.9972	 6.8140	 7.5306	 8.0324	 0.0023
303	21	5	7	7	418.0296	56	0	800	4487.3915	 0.0007	 8.0474	 8.8640	 9.5806	 9.9997	 0.0023
303	21	6	7	7	641.8386	29	1	800	4487.3915	 0.0007	 0.0082	 0.8250	 1.5416	 2.1845	 0.0023
303	21	7	7	7	546.1971	29	1	800	4487.3915	 0.0007	 2.1916	 3.0082	 3.7249	 4.2721	 0.0023
303	21	8	7	7	574.2137	56	1	800	4487.3915	 0.0007	 4.2917	 5.1083	 5.8249	 6.4001	 0.0023
303	21	9	7	7	545.4224	56	1	800	4487.3915	 0.0007	 6.4082	 7.2250	 7.9416	 8.4881	 0.0023
303	21	10	7	7	485.4368	29	1	800	4487.3915	 0.0007	 8.5084	 9.3249	10.0415	10.5280	 0.0023
303	21	11	7	7	332.6420	56	1	800	4487.3915	 0.0007	10.5416	11.3583	12.0749	12.4085	 0.0023
303	21	12	7	7	409.4769	56	1	800	4487.3915	 0.0007	12.4249	13.2415	13.9583	14.3688	 0.0023
303	21	1	8	7	499.9706	29	1	800	4487.3915	 0.0007	 0.0143	 0.8308	 1.5475	 2.0484	14.3711
303	21	2	8	7	473.9301	56	1	800	4487.3915	 0.0007	 2.0643	 2.8808	 3.5976	 4.0724	14.3711
303	21	3	8	7	385.4635	56	1	800	4487.3915	 0.0007	 4.0808	 4.8976	 5.6141	 6.0006	14.3711
303	21	4	8	7	428.2874	29	1	800	4487.3915	 0.0007	 6.0143	 6.8309	 7.5475	 7.9768	14.3711
303	21	5	8	7	404.7102	56	1	800	4487.3915	 0.0007	 7.9976	 8.8143	 9.5309	 9.9366	14.3711
303	21	6	8	7	398.6505	56	1	800	4487.3915	 0.0007	 9.9475	10.7641	11.4809	11.8805	14.3711
303	21	7	8	7	424.0285	56	1	800	4487.3915	 0.0007	11.8976	12.7142	13.4309	13.8560	14.3711
303	21	8	8	7	618.0256	29	1	800	4487.3915	 0.0007	13.8642	14.6809	15.3976	16.0165	14.3711
303	21	9	8	7	523.3963	56	1	800	4487.3915	 0.0007	16.0309	16.8475	17.5642	18.0886	14.3711
303	21	10	8	7	543.9515	56	1	800	4487.3915	 0.0007	18.0975	18.9142	19.6309	20.1759	14.3711
303	21	11	8	7	373.2945	56	1	800	4487.3915	 0.0007	20.1808	20.9976	21.7142	22.0885	14.3711
303	21	12	8	7	416.4386	56	1	800	4487.3915	 0.0007	22.0975	22.9142	23.6308	24.0483	14.3711
303	22	1	1	8	420.6567	56	1	800	4813.4917	 0.0023	 0.0135	 0.8301	 1.5468	 1.9684	0
303	22	2	1	8	349.7456	56	1	800	4813.4917	 0.0023	 1.9800	 2.7968	 3.5135	 3.8643	0
303	22	3	1	8	410.0990	29	1	800	4813.4917	 0.0023	 3.8801	 4.6968	 5.4135	 5.8246	0
303	22	4	1	8	419.6782	29	1	800	4813.4917	 0.0023	 5.8300	 6.6468	 7.3635	 7.7842	0
303	22	5	1	8	420.7363	56	0	800	4813.4917	 0.0023	 7.7968	 8.6135	 9.3300	 9.7518	0
303	22	6	1	8	438.0252	29	1	800	4813.4917	 0.0023	 0.0200	 0.8366	 1.5532	 1.9922	0
303	22	7	1	8	699.7515	1	0	800	4813.4917	 0.0023	 2.0032	 2.8199	 3.5366	 4.2370	0
303	22	8	1	8	699.8102	1	0	800	4813.4917	 0.0023	 0.0164	 0.8330	 1.5499	 2.2508	0
303	22	9	1	8	699.7394	1	0	800	4813.4917	 0.0023	 0.0096	 0.8262	 1.5430	 2.2434	0
303	22	10	1	8	443.9548	29	1	800	4813.4917	 0.0023	 0.0135	 0.8301	 1.5468	 1.9917	0
303	22	11	1	8	580.6156	56	0	800	4813.4917	 0.0023	 1.9968	 2.8135	 3.5302	 4.1120	0
303	22	12	1	8	 0.0844	29	0	800	4813.4917	 0.0023	 0.0138	 0.8306	 1.5472	 1.5484	0
303	22	13	1	8	699.6566	1	0	800	4813.4917	 0.0023	 0.0174	 0.8341	 1.5508	 2.2512	0
303	22	14	1	8	105.9324	29	1	800	4813.4917	 0.0023	 0.0161	 0.8328	 1.5496	 1.6564	0
303	22	15	1	8	699.6495	1	0	800	4813.4917	 0.0023	 1.6661	 2.4828	 3.1995	 3.8998	0
303	22	16	1	8	395.2402	56	0	800	4813.4917	 0.0023	 0.0215	 0.8382	 1.5549	 1.9511	0
303	22	17	1	8	265.2701	56	0	800	4813.4917	 0.0023	 0.0081	 0.8248	 1.5415	 1.8077	0
303	22	18	1	8	 0.1126	56	1	800	4813.4917	 0.0023	 0.0162	 0.8329	 1.5495	 1.5514	0
303	22	19	1	8	699.8878	1	0	800	4813.4917	 0.0023	 1.5662	 2.3829	 3.0996	 3.8002	0
303	22	20	1	8	699.5491	1	0	800	4813.4917	 0.0023	 0.0136	 0.8303	 1.5470	 2.2473	0
303	22	21	1	8	699.9610	44	0	800	4813.4917	 0.0023	 0.0070	 0.8237	 1.5405	 2.2411	0
303	22	22	1	8	699.5842	44	0	800	4813.4917	 0.0023	 0.0095	 0.8262	 1.5429	 2.2432	0
303	22	23	1	8	699.6091	1	0	800	4813.4917	 0.0023	 0.0116	 0.8283	 1.5450	 2.2453	0
303	22	24	1	8	699.8568	1	0	800	4813.4917	 0.0023	 0.0169	 0.8336	 1.5503	 2.2508	0
303	22	25	1	8	699.6815	1	0	800	4813.4917	 0.0023	 0.0178	 0.8344	 1.5512	 2.2516	0
303	22	26	1	8	699.6628	1	0	800	4813.4917	 0.0023	 0.0156	 0.8323	 1.5489	 2.2493	0
303	22	27	1	8	699.8134	44	0	800	4813.4917	 0.0023	 0.0134	 0.8301	 1.5467	 2.2475	0
303	22	28	1	8	699.8038	44	0	800	4813.4917	 0.0023	 0.0157	 0.8324	 1.5490	 2.2495	0
303	22	29	1	8	699.6690	1	0	800	4813.4917	 0.0023	 0.0101	 0.8268	 1.5434	 2.2438	0
303	22	30	1	8	699.7678	1	0	800	4813.4917	 0.0023	 0.0076	 0.8243	 1.5410	 2.2416	0
303	23	1	1	8	552.0791	56	1	800	4927.1247	 0.0007	 0.0098	 0.8266	 1.5432	 2.0962	0
303	23	2	1	8	347.4719	56	1	800	4927.1247	 0.0007	 2.1099	 2.9266	 3.6431	 3.9916	0
303	23	3	1	8	488.0634	29	1	800	4927.1247	 0.0007	 4.0099	 4.8266	 5.5432	 6.0323	0
303	23	4	1	8	414.6822	29	0	800	4927.1247	 0.0007	 6.0432	 6.8599	 7.5765	 7.9921	0
303	23	5	1	8	474.6065	56	1	800	4927.1247	 0.0007	 0.0068	 0.8236	 1.5403	 2.0160	0
303	23	6	1	8	578.3852	29	1	800	4927.1247	 0.0007	 2.0235	 2.8402	 3.5569	 4.1363	0
303	23	7	1	8	621.1482	29	0	800	4927.1247	 0.0007	 4.1569	 4.9736	 5.6902	 6.3124	0
303	23	8	1	8	528.7570	29	1	800	4927.1247	 0.0007	 0.0177	 0.8344	 1.5511	 2.0808	0
303	23	9	1	8	412.8942	56	1	800	4927.1247	 0.0007	 2.1010	 2.9177	 3.6345	 4.0483	0
303	23	10	1	8	462.2192	56	1	800	4927.1247	 0.0007	 4.0677	 4.8844	 5.6010	 6.0642	0
303	23	11	1	8	422.0414	56	1	800	4927.1247	 0.0007	 6.0844	 6.9011	 7.6178	 8.0408	0
303	23	12	1	8	422.6896	56	1	800	4927.1247	 0.0007	 8.0510	 8.8677	 9.5843	10.0080	0
303	23	1	2	8	393.6644	56	1	800	4927.1247	 0.0007	 0.0081	 0.8248	 1.5415	 1.9363	10.0105
303	23	2	2	8	564.7796	56	1	800	4927.1247	 0.0007	 1.9414	 2.7581	 3.4748	 4.0405	10.0105
303	23	3	2	8	383.5564	56	0	800	4927.1247	 0.0007	 4.0581	 4.8748	 5.5914	 5.9760	10.0105
303	23	4	2	8	321.5626	56	1	800	4927.1247	 0.0007	 0.0075	 0.8243	 1.5409	 1.8635	10.0105
303	23	5	2	8	358.8888	56	1	800	4927.1247	 0.0007	 1.8742	 2.6909	 3.4076	 3.7676	10.0105
303	23	6	2	8	594.6746	56	1	800	4927.1247	 0.0007	 3.7741	 4.5909	 5.3075	 5.9031	10.0105
303	23	7	2	8	588.5666	56	1	800	4927.1247	 0.0007	 5.9242	 6.7409	 7.4575	 8.0471	10.0105
303	23	8	2	8	359.7449	56	1	800	4927.1247	 0.0007	 8.0575	 8.8742	 9.5908	 9.9517	10.0105
303	23	9	2	8	515.3580	56	0	800	4927.1247	 0.0007	 9.9574	10.7742	11.4909	12.0073	10.0105
303	23	10	2	8	 0.0853	56	1	800	4927.1247	 0.0007	 0.0124	 0.8291	 1.5458	 1.5472	10.0105
303	23	11	2	8	699.8724	1	0	800	4927.1247	 0.0007	 1.5624	 2.3791	 3.0957	 3.7963	10.0105
303	23	12	2	8	526.6747	29	0	800	4927.1247	 0.0007	 0.0105	 0.8271	 1.5438	 2.0716	10.0105
303	23	1	3	8	339.2013	56	1	800	4927.1247	 0.0007	 0.0062	 0.8229	 1.5396	 1.8798	 0.0024
303	23	2	3	8	472.7193	29	1	800	4927.1247	 0.0007	 1.8895	 2.7062	 3.4229	 3.8966	 0.0024
303	23	3	3	8	351.1876	56	1	800	4927.1247	 0.0007	 3.9062	 4.7228	 5.4396	 5.7918	 0.0024
303	23	4	3	8	699.7569	1	0	800	4927.1247	 0.0007	 5.8062	 6.6228	 7.3395	 8.0400	 0.0024
303	23	5	3	8	519.2450	29	1	800	4927.1247	 0.0007	 0.0178	 0.8345	 1.5512	 2.0715	 0.0024
303	23	6	3	8	332.6255	56	1	800	4927.1247	 0.0007	 2.0844	 2.9011	 3.6178	 3.9514	 0.0024
303	23	7	3	8	481.6942	29	1	800	4927.1247	 0.0007	 3.9678	 4.7845	 5.5012	 5.9839	 0.0024
303	23	8	3	8	520.2905	56	0	800	4927.1247	 0.0007	 6.0011	 6.8178	 7.5346	 8.0559	 0.0024
303	23	9	3	8	317.2909	56	1	800	4927.1247	 0.0007	 0.0209	 0.8376	 1.5544	 1.8726	 0.0024
303	23	10	3	8	386.7302	56	1	800	4927.1247	 0.0007	 1.8876	 2.7042	 3.4210	 3.8086	 0.0024
303	23	11	3	8	525.7412	56	1	800	4927.1247	 0.0007	 3.8209	 4.6376	 5.3543	 5.8811	 0.0024
303	23	12	3	8	417.9476	29	0	800	4927.1247	 0.0007	 5.8876	 6.7043	 7.4210	 7.8398	 0.0024
303	23	1	4	8	630.8523	29	1	800	4927.1247	 0.0007	 0.0188	 0.8355	 1.5521	 2.1841	 0.0024
303	23	2	4	8	503.2577	29	1	800	4927.1247	 0.0007	 2.2021	 3.0188	 3.7355	 4.2399	 0.0024
303	23	3	4	8	414.0248	29	0	800	4927.1247	 0.0007	 4.2521	 5.0688	 5.7855	 6.2004	 0.0024
303	23	4	4	8	699.6241	1	0	800	4927.1247	 0.0007	 0.0120	 0.8287	 1.5454	 2.2457	 0.0024
303	23	5	4	8	446.6673	29	1	800	4927.1247	 0.0007	 0.0186	 0.8353	 1.5520	 1.9997	 0.0024
303	23	6	4	8	390.8917	56	1	800	4927.1247	 0.0007	 2.0186	 2.8353	 3.5519	 3.9440	 0.0024
303	23	7	4	8	449.3670	56	1	800	4927.1247	 0.0007	 3.9519	 4.7686	 5.4853	 5.9357	 0.0024
303	23	8	4	8	385.2539	56	1	800	4927.1247	 0.0007	 5.9519	 6.7686	 7.4853	 7.8716	 0.0024
303	23	9	4	8	436.0703	56	1	800	4927.1247	 0.0007	 7.8852	 8.7019	 9.4186	 9.8558	 0.0024
303	23	10	4	8	404.7536	56	1	800	4927.1247	 0.0007	 9.8685	10.6853	11.4019	11.8076	 0.0024
303	23	11	4	8	534.7120	29	1	800	4927.1247	 0.0007	11.8186	12.6353	13.3519	13.8876	 0.0024
303	23	12	4	8	307.8332	56	1	800	4927.1247	 0.0007	13.9019	14.7186	15.4353	15.7441	 0.0024
303	23	1	5	8	485.3448	29	1	800	4927.1247	 0.0007	 0.0048	 0.8215	 1.5382	 2.0246	15.7465
303	23	2	5	8	395.3273	56	1	800	4927.1247	 0.0007	 2.0381	 2.8548	 3.5716	 3.9680	15.7465
303	23	3	5	8	325.1949	56	1	800	4927.1247	 0.0007	 3.9881	 4.8049	 5.5215	 5.8476	15.7465
303	23	4	5	8	419.2509	56	0	800	4927.1247	 0.0007	 5.8599	 6.6715	 7.3882	 7.8085	15.7465
303	23	5	5	8	365.5371	56	1	800	4927.1247	 0.0007	 0.0197	 0.8363	 1.5531	 1.9198	15.7465
303	23	6	5	8	472.9771	29	1	800	4927.1247	 0.0007	 1.9363	 2.7530	 3.4697	 3.9439	15.7465
303	23	7	5	8	432.2212	56	1	800	4927.1247	 0.0007	 3.9530	 4.7697	 5.4864	 5.9197	15.7465
303	23	8	5	8	353.0300	56	1	800	4927.1247	 0.0007	 5.9363	 6.7530	 7.4697	 7.8237	15.7465
303	23	9	5	8	324.5211	56	1	800	4927.1247	 0.0007	 7.8363	 8.6530	 9.3697	 9.6953	15.7465
303	23	10	5	8	474.5159	56	1	800	4927.1247	 0.0007	 9.7029	10.5197	11.2364	11.7119	15.7465
303	23	11	5	8	473.3623	29	1	800	4927.1247	 0.0007	11.7196	12.5364	13.2530	13.7275	15.7465
303	23	12	5	8	368.6911	56	1	800	4927.1247	 0.0007	13.7363	14.5531	15.2697	15.6395	15.7465
303	23	1	6	8	415.3891	56	1	800	4927.1247	 0.0007	 0.0183	 0.8350	 1.5516	 1.9679	15.6419
303	23	2	6	8	295.9239	56	1	800	4927.1247	 0.0007	 1.9849	 2.8016	 3.5183	 3.8152	15.6419
303	23	3	6	8	342.0596	56	1	800	4927.1247	 0.0007	 3.8349	 4.6517	 5.3683	 5.7114	15.6419
303	23	4	6	8	394.7935	29	1	800	4927.1247	 0.0007	 5.7182	 6.5349	 7.2516	 7.6476	15.6419
303	23	5	6	8	549.3046	56	1	800	4927.1247	 0.0007	 7.6683	 8.4850	 9.2017	 9.7520	15.6419
303	23	6	6	8	416.5957	29	0	800	4927.1247	 0.0007	 9.7683	10.5850	11.3017	11.7192	15.6419
303	23	7	6	8	700.0183	1	0	800	4927.1247	 0.0007	 0.0075	 0.8242	 1.5409	 2.2416	15.6419
303	23	8	6	8	336.2390	56	1	800	4927.1247	 0.0007	 0.0181	 0.8348	 1.5513	 1.8885	15.6419
303	23	9	6	8	468.1414	56	1	800	4927.1247	 0.0007	 1.9013	 2.7181	 3.4348	 3.9040	15.6419
303	23	10	6	8	363.9222	56	0	800	4927.1247	 0.0007	 3.9180	 4.7347	 5.4515	 5.8163	15.6419
303	23	11	6	8	401.6515	56	1	800	4927.1247	 0.0007	 0.0157	 0.8324	 1.5491	 1.9518	15.6419
303	23	12	6	8	435.6666	29	1	800	4927.1247	 0.0007	 1.9657	 2.7825	 3.4991	 3.9358	15.6419
303	23	1	7	8	440.0076	56	1	800	4927.1247	 0.0007	 0.0178	 0.8345	 1.5512	 1.9921	 3.9382
303	23	2	7	8	352.0078	56	1	800	4927.1247	 0.0007	 2.0011	 2.8178	 3.5345	 3.8875	 3.9382
303	23	3	7	8	356.7466	56	0	800	4927.1247	 0.0007	 3.9012	 4.7178	 5.4345	 5.7923	 3.9382
303	23	4	7	8	485.1862	56	1	800	4927.1247	 0.0007	 0.0204	 0.8371	 1.5538	 2.0400	 3.9382
303	23	5	7	8	356.1061	56	1	800	4927.1247	 0.0007	 2.0537	 2.8705	 3.5871	 3.9443	 3.9382
303	23	6	7	8	344.7072	56	1	800	4927.1247	 0.0007	 3.9537	 4.7705	 5.4871	 5.8328	 3.9382
303	23	7	7	8	699.9866	1	0	800	4927.1247	 0.0007	 5.8370	 6.6538	 7.3705	 8.0712	 3.9382
303	23	8	7	8	376.6682	56	1	800	4927.1247	 0.0007	 0.0087	 0.8255	 1.5422	 1.9199	 3.9382
303	23	9	7	8	444.8561	29	1	800	4927.1247	 0.0007	 1.9253	 2.7422	 3.4587	 3.9045	 3.9382
303	23	10	7	8	509.3803	56	1	800	4927.1247	 0.0007	 3.9087	 4.7254	 5.4420	 5.9523	 3.9382
303	23	11	7	8	418.8701	29	1	800	4927.1247	 0.0007	 5.9587	 6.7754	 7.4921	 7.9123	 3.9382
303	23	12	7	8	380.5991	56	1	800	4927.1247	 0.0007	 7.9254	 8.7421	 9.4588	 9.8403	 3.9382
303	23	1	8	8	497.8807	56	1	800	4927.1247	 0.0007	 0.0147	 0.8313	 1.5481	 2.0470	 9.8427
303	23	2	8	8	392.3855	29	1	800	4927.1247	 0.0007	 2.0647	 2.8814	 3.5981	 3.9915	 9.8427
303	23	3	8	8	386.7374	56	1	800	4927.1247	 0.0007	 3.9980	 4.8148	 5.5314	 5.9191	 9.8427
303	23	4	8	8	446.0222	56	1	800	4927.1247	 0.0007	 5.9313	 6.7481	 7.4648	 7.9118	 9.8427
303	23	5	8	8	405.8683	56	1	800	4927.1247	 0.0007	 7.9314	 8.7481	 9.4648	 9.8716	 9.8427
303	23	6	8	8	335.3985	56	1	800	4927.1247	 0.0007	 9.8814	10.6980	11.4147	11.7511	 9.8427
303	23	7	8	8	452.4092	29	0	800	4927.1247	 0.0007	11.7647	12.5814	13.2980	13.7514	 9.8427
303	23	8	8	8	480.6533	29	1	800	4927.1247	 0.0007	 0.0173	 0.8341	 1.5506	 2.0322	 9.8427
303	23	9	8	8	342.7157	56	1	800	4927.1247	 0.0007	 2.0506	 2.8673	 3.5840	 3.9280	 9.8427
303	23	10	8	8	458.8346	29	1	800	4927.1247	 0.0007	 3.9507	 4.7673	 5.4840	 5.9439	 9.8427
303	23	11	8	8	435.2944	56	1	800	4927.1247	 0.0007	 5.9505	 6.7672	 7.4840	 7.9202	 9.8427
303	23	12	8	8	404.0724	29	1	800	4927.1247	 0.0007	 7.9339	 8.7506	 9.4673	 9.8723	 9.8427
303	23	1	9	8	417.8566	56	1	800	4927.1247	 0.0007	 0.0155	 0.8322	 1.5489	 1.9678	 9.8747
303	23	2	9	8	315.5603	56	1	800	4927.1247	 0.0007	 1.9822	 2.7989	 3.5156	 3.8322	 9.8747
303	23	3	9	8	472.6338	29	1	800	4927.1247	 0.0007	 3.8488	 4.6655	 5.3822	 5.8559	 9.8747
303	23	4	9	8	520.0857	56	1	800	4927.1247	 0.0007	 5.8655	 6.6822	 7.3989	 7.9201	 9.8747
303	23	5	9	8	477.4830	56	0	800	4927.1247	 0.0007	 7.9321	 8.7489	 9.4656	 9.9442	 9.8747
303	23	6	9	8	303.4715	56	1	800	4927.1247	 0.0007	 0.0187	 0.8355	 1.5520	 1.8565	 9.8747
303	23	7	9	8	612.5535	29	1	800	4927.1247	 0.0007	 1.8687	 2.6855	 3.4021	 4.0157	 9.8747
303	23	8	9	8	574.8340	56	0	800	4927.1247	 0.0007	 4.0354	 4.8520	 5.5687	 6.1445	 9.8747
303	23	9	9	8	250.7347	56	1	800	4927.1247	 0.0007	 0.0152	 0.8319	 1.5486	 1.8003	 9.8747
303	23	10	9	8	410.0160	29	1	800	4927.1247	 0.0007	 1.8152	 2.6319	 3.3485	 3.7597	 9.8747
303	23	11	9	8	524.6486	29	1	800	4927.1247	 0.0007	 3.7652	 4.5819	 5.2986	 5.8241	 9.8747
303	23	12	9	8	377.7071	56	1	800	4927.1247	 0.0007	 5.8318	 6.6485	 7.3652	 7.7440	 9.8747
303	23	1	10	8	416.7707	56	1	800	4927.1247	 0.0007	 0.0090	 0.8257	 1.5424	 1.9602	 7.7464
303	23	2	10	8	369.2653	56	1	800	4927.1247	 0.0007	 1.9757	 2.7925	 3.5091	 3.8793	 7.7464
303	23	3	10	8	429.0291	29	1	800	4927.1247	 0.0007	 3.8924	 4.7091	 5.4258	 5.8558	 7.7464
303	23	4	10	8	533.4131	56	1	800	4927.1247	 0.0007	 5.8757	 6.6925	 7.4090	 7.9434	 7.7464
303	23	5	10	8	650.6326	29	1	800	4927.1247	 0.0007	 7.9591	 8.7758	 9.4924	10.1439	 7.7464
303	23	6	10	8	394.4401	56	1	800	4927.1247	 0.0007	10.1590	10.9758	11.6925	12.0880	 7.7464
303	23	7	10	8	492.1138	29	1	800	4927.1247	 0.0007	12.1091	12.9258	13.6424	14.1356	 7.7464
303	23	8	10	8	411.3871	29	1	800	4927.1247	 0.0007	14.1423	14.9590	15.6758	16.0881	 7.7464
303	23	9	10	8	372.9850	56	1	800	4927.1247	 0.0007	16.0923	16.9092	17.6258	17.9998	 7.7464
303	23	10	10	8	416.4182	29	1	800	4927.1247	 0.0007	18.0090	18.8258	19.5425	19.9599	 7.7464
303	23	11	10	8	393.9580	29	1	800	4927.1247	 0.0007	19.9757	20.7925	21.5091	21.9040	 7.7464
303	23	12	10	8	396.4728	56	1	800	4927.1247	 0.0007	21.9090	22.7258	23.4423	23.8398	 7.7464
303	24	1	1	8	449.9175	56	1	800	5605.9580	 0.0007	 0.0070	 0.8238	 1.5404	 1.9913	0
303	24	2	1	8	409.9746	29	1	800	5605.9580	 0.0007	 2.0070	 2.8237	 3.5404	 3.9514	0
303	24	3	1	8	356.3363	56	1	800	5605.9580	 0.0007	 3.9570	 4.7738	 5.4905	 5.8479	0
303	24	4	1	8	432.7119	29	1	800	5605.9580	 0.0007	 5.8570	 6.6737	 7.3904	 7.8242	0
303	24	5	1	8	457.0159	56	1	800	5605.9580	 0.0007	 7.8404	 8.6571	 9.3738	 9.8318	0
303	24	6	1	8	368.7890	56	1	800	5605.9580	 0.0007	 9.8403	10.6571	11.3737	11.7436	0
303	24	7	1	8	508.4711	29	1	800	5605.9580	 0.0007	11.7570	12.5737	13.2904	13.7999	0
303	24	8	1	8	394.5225	56	1	800	5605.9580	 0.0007	13.8070	14.6237	15.3404	15.7359	0
303	24	9	1	8	381.1849	56	1	800	5605.9580	 0.0007	15.7403	16.5571	17.2737	17.6561	0
303	24	10	1	8	407.1877	56	1	800	5605.9580	 0.0007	17.6737	18.4904	19.2071	19.6153	0
303	24	11	1	8	418.2312	29	0	800	5605.9580	 0.0007	19.6237	20.4405	21.1570	21.5765	0
303	24	12	1	8	457.9232	56	0	800	5605.9580	 0.0007	 0.0071	 0.8238	 1.5405	 1.9995	0
